File: output/characterization_test_hppc_1.0C.csv
Time [s],Current [A],Power [W],Voltage [V],Capacity [Ah],Energy [Wh]
0.0,1.0,4.15551,4.15566,0.0,0.0
24.5266,1.0,4.13883,4.13835,0.00681296,0.0282429
55.5266,1.0,4.12863,4.12815,0.0154241,0.0638339
86.5266,1.0,4.1217,4.12011,0.0240352,0.0993538
117.527,1.0,4.1162,4.1154,0.0326463,0.134821
148.527,1.0,4.11152,4.11116,0.0412574,0.170245
179.527,1.0,4.10738,4.10818,0.0498685,0.205631
210.527,1.0,4.10363,4.10346,0.0584796,0.240983
241.527,1.0,4.10019,4.09987,0.0670907,0.276304
272.527,1.0,4.09701,4.0973,0.0757018,0.311597
303.527,1.0,4.09405,4.09275,0.084313,0.346864
334.527,1.0,4.09129,4.09137,0.0929241,0.382106
365.527,1.0,4.08871,4.08843,0.101535,0.417325
396.527,1.0,4.08628,4.08609,0.110146,0.452522
427.527,1.0,4.084,4.08426,0.118757,0.487699
458.527,1.0,4.08186,4.07987,0.127369,0.522857
489.527,1.0,4.07984,4.07958,0.13598,0.557998
520.527,1.0,4.07793,4.0789,0.144591,0.593121
551.527,1.0,4.07614,4.07747,0.153202,0.628229
582.527,1.0,4.07446,4.07557,0.161813,0.663321
613.527,1.0,4.07287,4.07413,0.170424,0.6984
644.527,1.0,4.07138,4.07195,0.179035,0.733465
675.527,1.0,4.06999,4.06846,0.187646,0.768518
706.527,1.0,4.06867,4.06782,0.196257,0.803559
737.527,1.0,4.06744,4.06959,0.204869,0.838589
768.527,1.0,4.06629,4.06509,0.21348,0.873609
799.527,1.0,4.06522,4.06619,0.222091,0.90862
830.527,1.0,4.06421,4.06331,0.230702,0.943621
861.527,1.0,4.06328,4.06174,0.239313,0.978614
892.527,1.0,4.0624,4.0634,0.247924,1.0136
916.476,0.0,0.0,4.10577,0.25,1.02203
947.476,0.0,0.0,4.10912,0.25,1.02203
978.476,0.0,0.0,4.11401,0.25,1.02203
1009.48,0.0,0.0,4.11218,0.25,1.02203
1040.48,0.0,0.0,4.11785,0.25,1.02203
1071.48,0.0,0.0,4.1178,0.25,1.02203
1102.48,0.0,0.0,4.11751,0.25,1.02203
1133.48,0.0,0.0,4.116,0.25,1.02203
1164.48,0.0,0.0,4.12051,0.25,1.02203
1195.48,0.0,0.0,4.11946,0.25,1.02203
1226.48,0.0,0.0,4.12033,0.25,1.02203
1257.48,0.0,0.0,4.12228,0.25,1.02203
1288.48,0.0,0.0,4.12004,0.25,1.02203
1319.48,0.0,0.0,4.12167,0.25,1.02203
1350.48,0.0,0.0,4.12164,0.25,1.02203
1381.48,0.0,0.0,4.12302,0.25,1.02203
1412.48,0.0,0.0,4.1198,0.25,1.02203
1443.48,0.0,0.0,4.12426,0.25,1.02203
1474.48,0.0,0.0,4.12403,0.25,1.02203
1500.12,5.0,19.9308,3.98602,0.25017,1.02271
1526.45,5.0,19.7572,3.95104,0.286735,1.16762
1545.2,0.0,0.0,4.09197,0.291667,1.1871
1575.8,0.0,0.0,4.10315,0.291667,1.1871
1606.8,0.0,0.0,4.10777,0.291667,1.1871
1637.8,0.0,0.0,4.11011,0.291667,1.1871
1668.8,0.0,0.0,4.11313,0.291667,1.1871
1699.8,0.0,0.0,4.11223,0.291667,1.1871
1730.8,0.0,0.0,4.11362,0.291667,1.1871
1761.8,0.0,0.0,4.11339,0.291667,1.1871
1792.8,0.0,0.0,4.11469,0.291667,1.1871
1823.8,0.0,0.0,4.1161,0.291667,1.1871
1854.8,0.0,0.0,4.11431,0.291667,1.1871
1885.8,0.0,0.0,4.11566,0.291667,1.1871
1916.8,0.0,0.0,4.11341,0.291667,1.1871
1947.8,0.0,0.0,4.11553,0.291667,1.1871
1978.8,0.0,0.0,4.11438,0.291667,1.1871
2009.8,0.0,0.0,4.11522,0.291667,1.1871
2040.8,0.0,0.0,4.11611,0.291667,1.1871
2071.8,0.0,0.0,4.11774,0.291667,1.1871
2102.8,0.0,0.0,4.11377,0.291667,1.1871
2130.15,1.0,4.07742,4.07601,0.291709,1.18727
2157.76,1.0,4.0684,4.06876,0.299378,1.2185
2188.76,1.0,4.06434,4.0646,0.307989,1.25351
2219.76,1.0,4.06205,4.0615,0.3166,1.2885
2250.76,1.0,4.0605,4.06047,0.325211,1.32347
2281.76,1.0,4.05936,4.05892,0.333822,1.35843
2312.76,1.0,4.05844,4.05692,0.342433,1.39338
2343.76,1.0,4.05769,4.05725,0.351044,1.42832
2374.76,1.0,4.05705,4.0574,0.359655,1.46326
2405.76,1.0,4.0565,4.05561,0.368267,1.4982
2436.76,1.0,4.05601,4.0552,0.376878,1.53313
2467.76,1.0,4.05558,4.05555,0.385489,1.56805
2498.76,1.0,4.05518,4.05381,0.3941,1.60297
2529.76,1.0,4.05482,4.05611,0.402711,1.63789
2560.76,1.0,4.05447,4.0559,0.411322,1.6728
2591.76,1.0,4.05415,4.05475,0.419933,1.70772
2622.76,1.0,4.05384,4.05321,0.428544,1.74263
2653.76,1.0,4.05353,4.05344,0.437155,1.77753
2684.76,1.0,4.05323,4.05388,0.445767,1.81244
2715.76,1.0,4.05292,4.05293,0.454378,1.84734
2746.76,1.0,4.05261,4.05101,0.462989,1.88224
2777.76,1.0,4.05229,4.05318,0.4716,1.91713
2808.76,1.0,4.05197,4.05125,0.480211,1.95203
2839.76,1.0,4.05163,4.05172,0.488822,1.98692
2870.76,1.0,4.05127,4.05164,0.497433,2.0218
2901.76,1.0,4.0509,4.05068,0.506044,2.05669
2932.76,1.0,4.05051,4.05105,0.514655,2.09157
2963.76,1.0,4.0501,4.04898,0.523267,2.12645
2994.76,1.0,4.04967,4.0512,0.531878,2.16132
3025.76,1.0,4.04921,4.04901,0.540489,2.19619
3049.48,0.0,0.0,4.08786,0.541667,2.20096
3080.48,0.0,0.0,4.09004,0.541667,2.20096
3111.48,0.0,0.0,4.09324,0.541667,2.20096
3142.48,0.0,0.0,4.09453,0.541667,2.20096
3173.48,0.0,0.0,4.09281,0.541667,2.20096
3204.48,0.0,0.0,4.0942,0.541667,2.20096
3235.48,0.0,0.0,4.09366,0.541667,2.20096
3266.48,0.0,0.0,4.09557,0.541667,2.20096
3297.48,0.0,0.0,4.09348,0.541667,2.20096
3328.48,0.0,0.0,4.09393,0.541667,2.20096
3359.48,0.0,0.0,4.09327,0.541667,2.20096
3390.48,0.0,0.0,4.0962,0.541667,2.20096
3421.48,0.0,0.0,4.09427,0.541667,2.20096
3452.48,0.0,0.0,4.09396,0.541667,2.20096
3483.48,0.0,0.0,4.09523,0.541667,2.20096
3514.48,0.0,0.0,4.09379,0.541667,2.20096
3545.48,0.0,0.0,4.09563,0.541667,2.20096
3576.48,0.0,0.0,4.0974,0.541667,2.20096
3607.48,0.0,0.0,4.09544,0.541667,2.20096
3630.74,5.0,19.8234,3.96494,0.542688,2.20501
3659.47,5.0,19.6887,3.93767,0.5826,2.36266
3678.24,0.0,0.0,4.07779,0.583333,2.36555
3708.56,0.0,0.0,4.08752,0.583333,2.36555
3739.56,0.0,0.0,4.08881,0.583333,2.36555
3770.56,0.0,0.0,4.0919,0.583333,2.36555
3801.56,0.0,0.0,4.09139,0.583333,2.36555
3832.56,0.0,0.0,4.0928,0.583333,2.36555
3863.56,0.0,0.0,4.09369,0.583333,2.36555
3894.56,0.0,0.0,4.09251,0.583333,2.36555
3925.56,0.0,0.0,4.09322,0.583333,2.36555
3956.56,0.0,0.0,4.09401,0.583333,2.36555
3987.56,0.0,0.0,4.09456,0.583333,2.36555
4018.56,0.0,0.0,4.09419,0.583333,2.36555
4049.56,0.0,0.0,4.09258,0.583333,2.36555
4080.56,0.0,0.0,4.09326,0.583333,2.36555
4111.56,0.0,0.0,4.09365,0.583333,2.36555
4142.56,0.0,0.0,4.09229,0.583333,2.36555
4173.56,0.0,0.0,4.09418,0.583333,2.36555
4204.56,0.0,0.0,4.09352,0.583333,2.36555
4235.56,0.0,0.0,4.09434,0.583333,2.36555
4260.92,1.0,4.05807,4.05845,0.58359,2.36659
4290.77,1.0,4.0531,4.05392,0.59188,2.40021
4321.77,1.0,4.05068,4.05116,0.600491,2.4351
4352.77,1.0,4.04913,4.04915,0.609102,2.46997
4383.77,1.0,4.0479,4.04649,0.617713,2.50483
4414.77,1.0,4.0468,4.049,0.626325,2.53968
4445.77,1.0,4.04573,4.04619,0.634936,2.57453
4476.77,1.0,4.04467,4.04491,0.643547,2.60936
4507.77,1.0,4.04361,4.04283,0.652158,2.64419
4538.77,1.0,4.04253,4.04257,0.660769,2.679
4569.77,1.0,4.04144,4.04298,0.66938,2.71381
4600.77,1.0,4.04032,4.04222,0.677991,2.7486
4631.77,1.0,4.03919,4.03782,0.686602,2.78339
4662.77,1.0,4.03803,4.03774,0.695213,2.81817
4693.77,1.0,4.03685,4.03542,0.703825,2.85293
4724.77,1.0,4.03565,4.03623,0.712436,2.88769
4755.77,1.0,4.03443,4.0345,0.721047,2.92244
4786.77,1.0,4.03319,4.03346,0.729658,2.95717
4817.77,1.0,4.03192,4.02994,0.738269,2.9919
4848.77,1.0,4.03064,4.03044,0.74688,3.02661
4879.77,1.0,4.02933,4.03109,0.755491,3.06131
4910.77,1.0,4.02801,4.02874,0.764102,3.096
4941.77,1.0,4.02667,4.02695,0.772713,3.13068
4972.77,1.0,4.0253,4.02682,0.781325,3.16535
5003.77,1.0,4.02392,4.02317,0.789936,3.20001
5034.77,1.0,4.02253,4.02241,0.798547,3.23465
5065.77,1.0,4.02112,4.02156,0.807158,3.26928
5096.77,1.0,4.01969,4.01901,0.815769,3.3039
5127.77,1.0,4.01825,4.0182,0.82438,3.33851
5158.77,1.0,4.01679,4.01613,0.832991,3.37311
5180.96,0.0,0.0,4.05858,0.833333,3.37448
5211.96,0.0,0.0,4.06144,0.833333,3.37448
5242.96,0.0,0.0,4.06421,0.833333,3.37448
5273.96,0.0,0.0,4.0668,0.833333,3.37448
5304.96,0.0,0.0,4.06676,0.833333,3.37448
5335.96,0.0,0.0,4.06868,0.833333,3.37448
5366.96,0.0,0.0,4.068,0.833333,3.37448
5397.96,0.0,0.0,4.06925,0.833333,3.37448
5428.96,0.0,0.0,4.06999,0.833333,3.37448
5459.96,0.0,0.0,4.06979,0.833333,3.37448
5490.96,0.0,0.0,4.07009,0.833333,3.37448
5521.96,0.0,0.0,4.07046,0.833333,3.37448
5552.96,0.0,0.0,4.07065,0.833333,3.37448
5583.96,0.0,0.0,4.07177,0.833333,3.37448
5614.96,0.0,0.0,4.07266,0.833333,3.37448
5645.96,0.0,0.0,4.07301,0.833333,3.37448
5676.96,0.0,0.0,4.07263,0.833333,3.37448
5707.96,0.0,0.0,4.07231,0.833333,3.37448
5738.96,0.0,0.0,4.073,0.833333,3.37448
5760.98,5.0,19.7243,3.94527,0.834697,3.37986
5790.0,5.0,19.4787,3.8979,0.875,3.5377
5809.24,0.0,0.0,4.04107,0.875,3.5377
5839.63,0.0,0.0,4.05315,0.875,3.5377
5870.63,0.0,0.0,4.05942,0.875,3.5377
5901.63,0.0,0.0,4.06188,0.875,3.5377
5932.63,0.0,0.0,4.0638,0.875,3.5377
5963.63,0.0,0.0,4.06404,0.875,3.5377
5994.63,0.0,0.0,4.06352,0.875,3.5377
6025.63,0.0,0.0,4.06548,0.875,3.5377
6056.63,0.0,0.0,4.06486,0.875,3.5377
6087.63,0.0,0.0,4.06706,0.875,3.5377
6118.63,0.0,0.0,4.06536,0.875,3.5377
6149.63,0.0,0.0,4.06524,0.875,3.5377
6180.63,0.0,0.0,4.06692,0.875,3.5377
6211.63,0.0,0.0,4.06697,0.875,3.5377
6242.63,0.0,0.0,4.06657,0.875,3.5377
6273.63,0.0,0.0,4.06685,0.875,3.5377
6304.63,0.0,0.0,4.06753,0.875,3.5377
6335.63,0.0,0.0,4.0684,0.875,3.5377
6366.63,0.0,0.0,4.06752,0.875,3.5377
6391.54,1.0,4.03299,4.0322,0.875428,3.53942
6421.77,1.0,4.02332,4.02385,0.883825,3.57324
6452.77,1.0,4.01832,4.01761,0.892437,3.60786
6483.77,1.0,4.01478,4.01426,0.901048,3.64245
6514.77,1.0,4.01187,4.01086,0.909659,3.67701
6545.77,1.0,4.00929,4.00983,0.91827,3.71154
6576.77,1.0,4.00689,4.00671,0.926881,3.74606
6607.77,1.0,4.00462,4.00469,0.935492,3.78055
6638.77,1.0,4.00245,4.00359,0.944103,3.81502
6669.77,1.0,4.00035,4.00081,0.952714,3.84948
6700.77,1.0,3.9983,3.99807,0.961325,3.88392
6731.77,1.0,3.99631,3.99393,0.969937,3.91834
6762.77,1.0,3.99436,3.99343,0.978548,3.95274
6793.77,1.0,3.99244,3.9947,0.987159,3.98713
6824.77,1.0,3.99056,3.99004,0.99577,4.0215
6855.77,1.0,3.98871,3.98868,1.00438,4.05586
6886.77,1.0,3.98688,3.98679,1.01299,4.09019
6917.77,1.0,3.98507,3.9854,1.0216,4.12452
6948.77,1.0,3.98329,3.98116,1.03021,4.15883
6979.77,1.0,3.98152,3.98045,1.03883,4.19312
7010.77,1.0,3.97978,3.9809,1.04744,4.2274
7041.77,1.0,3.97805,3.97636,1.05605,4.26166
7072.77,1.0,3.97634,3.97475,1.06466,4.29591
7103.77,1.0,3.97464,3.97332,1.07327,4.33014
7134.77,1.0,3.97296,3.97405,1.08188,4.36436
7165.77,1.0,3.97128,3.97234,1.09049,4.39856
7196.77,1.0,3.96963,3.97022,1.0991,4.43275
7227.77,1.0,3.96798,3.96808,1.10771,4.46693
7258.77,1.0,3.96635,3.96538,1.11633,4.50109
7289.77,1.0,3.96472,3.96458,1.12494,4.53524
7311.95,0.0,0.0,4.00389,1.125,4.53549
7342.95,0.0,0.0,4.00951,1.125,4.53549
7373.95,0.0,0.0,4.01203,1.125,4.53549
7404.95,0.0,0.0,4.01419,1.125,4.53549
7435.95,0.0,0.0,4.01776,1.125,4.53549
7466.95,0.0,0.0,4.01586,1.125,4.53549
7497.95,0.0,0.0,4.01893,1.125,4.53549
7528.95,0.0,0.0,4.01791,1.125,4.53549
7559.95,0.0,0.0,4.02004,1.125,4.53549
7590.95,0.0,0.0,4.02096,1.125,4.53549
7621.95,0.0,0.0,4.02076,1.125,4.53549
7652.95,0.0,0.0,4.0211,1.125,4.53549
7683.95,0.0,0.0,4.02072,1.125,4.53549
7714.95,0.0,0.0,4.02169,1.125,4.53549
7745.95,0.0,0.0,4.02068,1.125,4.53549
7776.95,0.0,0.0,4.02146,1.125,4.53549
7807.95,0.0,0.0,4.02287,1.125,4.53549
7838.95,0.0,0.0,4.02282,1.125,4.53549
7869.95,0.0,0.0,4.021,1.125,4.53549
7891.47,5.0,19.4794,3.8954,1.12705,4.54347
7920,0.0,0.0,3.96069,1.16667,4.6966
7940.25,0.0,0.0,3.98717,1.16667,4.6966
7970.57,0.0,0.0,3.99907,1.16667,4.6966
8001.57,0.0,0.0,4.00531,1.16667,4.6966
8032.57,0.0,0.0,4.00922,1.16667,4.6966
8063.57,0.0,0.0,4.01038,1.16667,4.6966
8094.57,0.0,0.0,4.01207,1.16667,4.6966
8125.57,0.0,0.0,4.01041,1.16667,4.6966
8156.57,0.0,0.0,4.0115,1.16667,4.6966
8187.57,0.0,0.0,4.01348,1.16667,4.6966
8218.57,0.0,0.0,4.01411,1.16667,4.6966
8249.57,0.0,0.0,4.01154,1.16667,4.6966
8280.57,0.0,0.0,4.01443,1.16667,4.6966
8311.57,0.0,0.0,4.01544,1.16667,4.6966
8342.57,0.0,0.0,4.0131,1.16667,4.6966
8373.57,0.0,0.0,4.01599,1.16667,4.6966
8404.57,0.0,0.0,4.01519,1.16667,4.6966
8435.57,0.0,0.0,4.0141,1.16667,4.6966
8466.57,0.0,0.0,4.01472,1.16667,4.6966
8497.57,0.0,0.0,4.01517,1.16667,4.6966
8522.16,1.0,3.98219,3.98306,1.16727,4.69899
8552.77,1.0,3.97132,3.97114,1.17577,4.7328
8583.77,1.0,3.96591,3.96553,1.18438,4.76697
8614.77,1.0,3.96213,3.96144,1.19299,4.80111
8645.77,1.0,3.95907,3.95953,1.2016,4.83521
8676.77,1.0,3.9564,3.95688,1.21021,4.86929
8707.77,1.0,3.95396,3.95455,1.21883,4.90335
8738.77,1.0,3.95168,3.9513,1.22744,4.93739
8769.77,1.0,3.94953,3.9496,1.23605,4.97141
8800.77,1.0,3.94746,3.94815,1.24466,5.00541
8831.77,1.0,3.94547,3.9441,1.25327,5.03939
8862.77,1.0,3.94355,3.94326,1.26188,5.07336
8893.77,1.0,3.94167,3.9421,1.27049,5.10731
8924.77,1.0,3.93984,3.94006,1.2791,5.14124
8955.77,1.0,3.93805,3.93914,1.28771,5.17516
8986.77,1.0,3.93629,3.93646,1.29633,5.20906
9017.77,1.0,3.93456,3.93367,1.30494,5.24295
9048.77,1.0,3.93285,3.93437,1.31355,5.27682
9079.77,1.0,3.93117,3.93027,1.32216,5.31068
9110.77,1.0,3.9295,3.92783,1.33077,5.34453
9141.77,1.0,3.92785,3.92824,1.33938,5.37836
9172.77,1.0,3.92622,3.92575,1.34799,5.41217
9203.77,1.0,3.9246,3.925,1.3566,5.44597
9234.77,1.0,3.92299,3.92437,1.36521,5.47976
9265.77,1.0,3.92139,3.92295,1.37383,5.51354
9296.77,1.0,3.9198,3.91972,1.38244,5.5473
9327.77,1.0,3.91821,3.91986,1.39105,5.58104
9358.77,1.0,3.91664,3.91573,1.39966,5.61478
9389.77,1.0,3.91506,3.91654,1.40827,5.6485
9420.0,1.0,3.91353,3.9148,1.41667,5.68136
9442.68,0.0,0.0,3.95335,1.41667,5.68136
9473.68,0.0,0.0,3.95624,1.41667,5.68136
9504.68,0.0,0.0,3.96001,1.41667,5.68136
9535.68,0.0,0.0,3.96201,1.41667,5.68136
9566.68,0.0,0.0,3.9629,1.41667,5.68136
9597.68,0.0,0.0,3.96301,1.41667,5.68136
9628.68,0.0,0.0,3.96371,1.41667,5.68136
9659.68,0.0,0.0,3.96329,1.41667,5.68136
9690.68,0.0,0.0,3.96571,1.41667,5.68136
9721.68,0.0,0.0,3.96654,1.41667,5.68136
9752.68,0.0,0.0,3.96693,1.41667,5.68136
9783.68,0.0,0.0,3.96465,1.41667,5.68136
9814.68,0.0,0.0,3.96975,1.41667,5.68136
9845.68,0.0,0.0,3.96733,1.41667,5.68136
9876.68,0.0,0.0,3.96874,1.41667,5.68136
9907.68,0.0,0.0,3.96781,1.41667,5.68136
9938.68,0.0,0.0,3.96827,1.41667,5.68136
9969.68,0.0,0.0,3.97026,1.41667,5.68136
10000.7,0.0,0.0,3.9653,1.41667,5.68136
10021.6,5.0,19.2169,3.84294,1.41889,5.68991
10050,0.0,0.0,3.91082,1.45833,5.84036
10068.5,0.0,0.0,3.9358,1.45833,5.84036
10099.5,0.0,0.0,3.94706,1.45833,5.84036
10130.5,0.0,0.0,3.95285,1.45833,5.84036
10161.5,0.0,0.0,3.95451,1.45833,5.84036
10192.5,0.0,0.0,3.95635,1.45833,5.84036
10223.5,0.0,0.0,3.9576,1.45833,5.84036
10254.5,0.0,0.0,3.95649,1.45833,5.84036
10285.5,0.0,0.0,3.95866,1.45833,5.84036
10316.5,0.0,0.0,3.95914,1.45833,5.84036
10347.5,0.0,0.0,3.95887,1.45833,5.84036
10378.5,0.0,0.0,3.96013,1.45833,5.84036
10409.5,0.0,0.0,3.95906,1.45833,5.84036
10440.5,0.0,0.0,3.96003,1.45833,5.84036
10471.5,0.0,0.0,3.96294,1.45833,5.84036
10502.5,0.0,0.0,3.96079,1.45833,5.84036
10533.5,0.0,0.0,3.95908,1.45833,5.84036
10564.5,0.0,0.0,3.96033,1.45833,5.84036
10595.5,0.0,0.0,3.96102,1.45833,5.84036
10626.5,0.0,0.0,3.96076,1.45833,5.84036
10651.9,1.0,3.92965,3.93034,1.45885,5.84238
10682.1,1.0,3.91941,3.91965,1.46725,5.87533
10713.1,1.0,3.91427,3.91318,1.47586,5.90906
10744.1,1.0,3.91069,3.91176,1.48447,5.94275
10775.1,1.0,3.90778,3.90896,1.49308,5.97641
10806.1,1.0,3.90522,3.90471,1.50169,6.01005
10837.1,1.0,3.90286,3.90234,1.5103,6.04367
10868.1,1.0,3.90063,3.89977,1.51891,6.07727
10899.1,1.0,3.89849,3.89794,1.52752,6.11085
10930.1,1.0,3.89642,3.8988,1.53614,6.14441
10961.1,1.0,3.8944,3.89521,1.54475,6.17795
10992.1,1.0,3.89241,3.89378,1.55336,6.21148
11023.1,1.0,3.89045,3.89091,1.56197,6.24499
11054.1,1.0,3.88851,3.89042,1.57058,6.27848
11085.1,1.0,3.88659,3.88618,1.57919,6.31195
11116.1,1.0,3.88468,3.88514,1.5878,6.34541
11147.1,1.0,3.88278,3.88327,1.59641,6.37886
11178.1,1.0,3.88088,3.87996,1.60502,6.41228
11209.1,1.0,3.87897,3.87864,1.61364,6.44569
11240.1,1.0,3.87707,3.87702,1.62225,6.47909
11271.1,1.0,3.87516,3.87591,1.63086,6.51246
11302.1,1.0,3.87324,3.8733,1.63947,6.54583
11333.1,1.0,3.87132,3.87256,1.64808,6.57917
11364.1,1.0,3.86938,3.86986,1.65669,6.6125
11395.1,1.0,3.86744,3.86687,1.6653,6.64581
11426.1,1.0,3.86548,3.8662,1.67391,6.6791
11457.1,1.0,3.86351,3.86187,1.68252,6.71238
11488.1,1.0,3.86153,3.86229,1.69114,6.74564
11519.1,1.0,3.85954,3.85994,1.69975,6.77888
11550.0,1.0,3.85754,3.85772,1.70833,6.81202
11572.7,0.0,0.0,3.89654,1.70833,6.81202
11603.7,0.0,0.0,3.9009,1.70833,6.81202
11634.7,0.0,0.0,3.90132,1.70833,6.81202
11665.7,0.0,0.0,3.90597,1.70833,6.81202
11696.7,0.0,0.0,3.90707,1.70833,6.81202
11727.7,0.0,0.0,3.9052,1.70833,6.81202
11758.7,0.0,0.0,3.90516,1.70833,6.81202
11789.7,0.0,0.0,3.90783,1.70833,6.81202
11820.7,0.0,0.0,3.90872,1.70833,6.81202
11851.7,0.0,0.0,3.90669,1.70833,6.81202
11882.7,0.0,0.0,3.90915,1.70833,6.81202
11913.7,0.0,0.0,3.90946,1.70833,6.81202
11944.7,0.0,0.0,3.90925,1.70833,6.81202
11975.7,0.0,0.0,3.91034,1.70833,6.81202
12006.7,0.0,0.0,3.90717,1.70833,6.81202
12037.7,0.0,0.0,3.90818,1.70833,6.81202
12068.7,0.0,0.0,3.90922,1.70833,6.81202
12099.7,0.0,0.0,3.91036,1.70833,6.81202
12130.7,0.0,0.0,3.91035,1.70833,6.81202
12151.2,5.0,18.9391,3.78645,1.70998,6.81825
12179.6,5.0,18.6787,3.73604,1.74948,6.96662
12196.1,0.0,0.0,3.87436,1.75,6.96858
12227.1,0.0,0.0,3.88805,1.75,6.96858
12258.1,0.0,0.0,3.89194,1.75,6.96858
12289.1,0.0,0.0,3.89381,1.75,6.96858
12320.1,0.0,0.0,3.89818,1.75,6.96858
12351.1,0.0,0.0,3.89684,1.75,6.96858
12382.1,0.0,0.0,3.89709,1.75,6.96858
12413.1,0.0,0.0,3.89877,1.75,6.96858
12444.1,0.0,0.0,3.90063,1.75,6.96858
12475.1,0.0,0.0,3.90009,1.75,6.96858
12506.1,0.0,0.0,3.89896,1.75,6.96858
12537.1,0.0,0.0,3.89819,1.75,6.96858
12568.1,0.0,0.0,3.9007,1.75,6.96858
12599.1,0.0,0.0,3.90072,1.75,6.96858
12630.1,0.0,0.0,3.9015,1.75,6.96858
12661.1,0.0,0.0,3.90111,1.75,6.96858
12692.1,0.0,0.0,3.90088,1.75,6.96858
12723.1,0.0,0.0,3.90081,1.75,6.96858
12754.1,0.0,0.0,3.90209,1.75,6.96858
12780.6,1.0,3.87074,3.8714,1.75017,6.96924
12808.7,1.0,3.85978,3.85903,1.75797,6.99939
12839.7,1.0,3.85395,3.85375,1.76658,7.0326
12870.7,1.0,3.84988,3.85114,1.7752,7.06577
12901.7,1.0,3.84656,3.84611,1.78381,7.0989
12932.7,1.0,3.84362,3.84304,1.79242,7.13201
12963.7,1.0,3.84092,3.84159,1.80103,7.1651
12994.7,1.0,3.83837,3.83875,1.80964,7.19816
13025.7,1.0,3.83595,3.83909,1.81825,7.2312
13056.7,1.0,3.83362,3.83522,1.82686,7.26422
13087.7,1.0,3.83137,3.83044,1.83547,7.29723
13118.7,1.0,3.8292,3.83022,1.84408,7.33021
13149.7,1.0,3.82709,3.82736,1.8527,7.36317
13180.7,1.0,3.82504,3.82543,1.86131,7.39612
13211.7,1.0,3.82304,3.82273,1.86992,7.42905
13242.7,1.0,3.82109,3.82172,1.87853,7.46196
13273.7,1.0,3.81919,3.8184,1.88714,7.49486
13304.7,1.0,3.81733,3.81713,1.89575,7.52773
13335.7,1.0,3.81552,3.81581,1.90436,7.5606
13366.7,1.0,3.81374,3.81497,1.91297,7.59345
13397.7,1.0,3.81199,3.81268,1.92158,7.62628
13428.7,1.0,3.81027,3.81015,1.9302,7.6591
13459.7,1.0,3.80859,3.80762,1.93881,7.6919
13490.7,1.0,3.80693,3.80718,1.94742,7.72469
13521.7,1.0,3.80529,3.80554,1.95603,7.75746
13552.7,1.0,3.80368,3.80422,1.96464,7.79022
13583.7,1.0,3.80209,3.80332,1.97325,7.82297
13614.7,1.0,3.80051,3.79984,1.98186,7.8557
13645.7,1.0,3.79895,3.79789,1.99047,7.88842
13676.7,1.0,3.79741,3.79646,1.99908,7.92113
13700.8,0.0,0.0,3.83559,2.0,7.92461
13731.8,0.0,0.0,3.83942,2.0,7.92461
13762.8,0.0,0.0,3.84122,2.0,7.92461
13793.8,0.0,0.0,3.84254,2.0,7.92461
13824.8,0.0,0.0,3.8445,2.0,7.92461
13855.8,0.0,0.0,3.84392,2.0,7.92461
13886.8,0.0,0.0,3.84392,2.0,7.92461
13917.8,0.0,0.0,3.84646,2.0,7.92461
13948.8,0.0,0.0,3.84615,2.0,7.92461
13979.8,0.0,0.0,3.84639,2.0,7.92461
14010.8,0.0,0.0,3.84684,2.0,7.92461
14041.8,0.0,0.0,3.84859,2.0,7.92461
14072.8,0.0,0.0,3.84766,2.0,7.92461
14103.8,0.0,0.0,3.8482,2.0,7.92461
14134.8,0.0,0.0,3.84882,2.0,7.92461
14165.8,0.0,0.0,3.84985,2.0,7.92461
14196.8,0.0,0.0,3.84854,2.0,7.92461
14227.8,0.0,0.0,3.84829,2.0,7.92461
14258.8,0.0,0.0,3.84846,2.0,7.92461
14280.9,5.0,18.6454,3.72877,2.0013,7.92945
14309.5,5.0,18.4054,3.68059,2.04093,8.07611
14328.9,0.0,0.0,3.81749,2.04167,8.07882
14359.9,0.0,0.0,3.83071,2.04167,8.07882
14390.9,0.0,0.0,3.8334,2.04167,8.07882
14421.9,0.0,0.0,3.83786,2.04167,8.07882
14452.9,0.0,0.0,3.83784,2.04167,8.07882
14483.9,0.0,0.0,3.83895,2.04167,8.07882
14514.9,0.0,0.0,3.84027,2.04167,8.07882
14545.9,0.0,0.0,3.84011,2.04167,8.07882
14576.9,0.0,0.0,3.84054,2.04167,8.07882
14607.9,0.0,0.0,3.84043,2.04167,8.07882
14638.9,0.0,0.0,3.84204,2.04167,8.07882
14669.9,0.0,0.0,3.84028,2.04167,8.07882
14700.9,0.0,0.0,3.841,2.04167,8.07882
14731.9,0.0,0.0,3.84235,2.04167,8.07882
14762.9,0.0,0.0,3.84039,2.04167,8.07882
14793.9,0.0,0.0,3.84318,2.04167,8.07882
14824.9,0.0,0.0,3.84407,2.04167,8.07882
14855.9,0.0,0.0,3.84155,2.04167,8.07882
14886.9,0.0,0.0,3.84299,2.04167,8.07882
14911.5,1.0,3.81209,3.81291,2.04209,8.08045
14941.8,1.0,3.80237,3.80222,2.05049,8.11242
14972.8,1.0,3.79751,3.79611,2.0591,8.14514
15003.8,1.0,3.79414,3.79268,2.06771,8.17782
15034.8,1.0,3.79141,3.79011,2.07633,8.21048
15065.8,1.0,3.789,3.79007,2.08494,8.24312
15096.8,1.0,3.78678,3.78794,2.09355,8.27574
15127.8,1.0,3.78469,3.78457,2.10216,8.30834
15158.8,1.0,3.78268,3.78081,2.11077,8.34092
15189.8,1.0,3.78074,3.77896,2.11938,8.37348
15220.8,1.0,3.77885,3.77761,2.12799,8.40603
15251.8,1.0,3.777,3.77571,2.1366,8.43856
15282.8,1.0,3.77519,3.7755,2.14521,8.47108
15313.8,1.0,3.77341,3.77167,2.15383,8.50358
15344.8,1.0,3.77165,3.77198,2.16244,8.53607
15375.8,1.0,3.7699,3.76927,2.17105,8.56854
15406.8,1.0,3.76818,3.76871,2.17966,8.60099
15437.8,1.0,3.76647,3.76711,2.18827,8.63343
15468.8,1.0,3.76477,3.76497,2.19688,8.66586
15499.8,1.0,3.76307,3.76169,2.20549,8.69827
15530.8,1.0,3.76139,3.76193,2.2141,8.73067
15561.8,1.0,3.75971,3.75994,2.22271,8.76305
15592.8,1.0,3.75804,3.75896,2.23133,8.79542
15623.8,1.0,3.75638,3.75615,2.23994,8.82777
15654.8,1.0,3.75471,3.75397,2.24855,8.86011
15685.8,1.0,3.75305,3.7515,2.25716,8.89243
15716.8,1.0,3.75139,3.75261,2.26577,8.92474
15747.8,1.0,3.74974,3.74924,2.27438,8.95704
15778.8,1.0,3.74808,3.74933,2.28299,8.98932
15809.8,1.0,3.74643,3.74587,2.2916,9.02159
15833.8,0.0,0.0,3.78409,2.29167,9.02183
15864.8,0.0,0.0,3.7894,2.29167,9.02183
15895.8,0.0,0.0,3.79302,2.29167,9.02183
15926.8,0.0,0.0,3.79525,2.29167,9.02183
15957.8,0.0,0.0,3.79332,2.29167,9.02183
15988.8,0.0,0.0,3.79486,2.29167,9.02183
16019.8,0.0,0.0,3.79985,2.29167,9.02183
16050.8,0.0,0.0,3.79793,2.29167,9.02183
16081.8,0.0,0.0,3.79775,2.29167,9.02183
16112.8,0.0,0.0,3.79963,2.29167,9.02183
16143.8,0.0,0.0,3.80066,2.29167,9.02183
16174.8,0.0,0.0,3.79927,2.29167,9.02183
16205.8,0.0,0.0,3.79941,2.29167,9.02183
16236.8,0.0,0.0,3.80095,2.29167,9.02183
16267.8,0.0,0.0,3.80123,2.29167,9.02183
16298.8,0.0,0.0,3.80139,2.29167,9.02183
16329.8,0.0,0.0,3.79972,2.29167,9.02183
16360.8,0.0,0.0,3.80097,2.29167,9.02183
16391.8,0.0,0.0,3.80096,2.29167,9.02183
16412.9,5.0,18.3774,3.67456,2.29576,9.03689
16440,0.0,0.0,3.74257,2.33333,9.17393
16463.8,0.0,0.0,3.77107,2.33333,9.17393
16494.8,0.0,0.0,3.78196,2.33333,9.17393
16525.8,0.0,0.0,3.78658,2.33333,9.17393
16556.8,0.0,0.0,3.78788,2.33333,9.17393
16587.8,0.0,0.0,3.78954,2.33333,9.17393
16618.8,0.0,0.0,3.7898,2.33333,9.17393
16649.8,0.0,0.0,3.79143,2.33333,9.17393
16680.8,0.0,0.0,3.79288,2.33333,9.17393
16711.8,0.0,0.0,3.79279,2.33333,9.17393
16742.8,0.0,0.0,3.79317,2.33333,9.17393
16773.8,0.0,0.0,3.79236,2.33333,9.17393
16804.8,0.0,0.0,3.79272,2.33333,9.17393
16835.8,0.0,0.0,3.79429,2.33333,9.17393
16866.8,0.0,0.0,3.79338,2.33333,9.17393
16897.8,0.0,0.0,3.79328,2.33333,9.17393
16928.8,0.0,0.0,3.79255,2.33333,9.17393
16959.8,0.0,0.0,3.79409,2.33333,9.17393
16990.8,0.0,0.0,3.7954,2.33333,9.17393
17021.8,0.0,0.0,3.7941,2.33333,9.17393
17046.2,1.0,3.76146,3.76087,2.33504,9.18036
17077.2,1.0,3.75201,3.752,2.34365,9.2127
17108.2,1.0,3.74692,3.74618,2.35227,9.24499
17139.2,1.0,3.74322,3.74396,2.36088,9.27724
17170.2,1.0,3.74016,3.73891,2.36949,9.30946
17201.2,1.0,3.73742,3.73656,2.3781,9.34165
17232.2,1.0,3.7349,3.73378,2.38671,9.37382
17263.2,1.0,3.73252,3.73249,2.39532,9.40597
17294.2,1.0,3.73025,3.73043,2.40393,9.4381
17325.2,1.0,3.72807,3.72875,2.41254,9.47022
17356.2,1.0,3.72595,3.72477,2.42115,9.50231
17387.2,1.0,3.72389,3.72231,2.42977,9.53439
17418.2,1.0,3.72188,3.72256,2.43838,9.56644
17449.2,1.0,3.71991,3.72036,2.44699,9.59848
17480.2,1.0,3.71798,3.71714,2.4556,9.63051
17511.2,1.0,3.71609,3.71511,2.46421,9.66252
17542.2,1.0,3.71423,3.71265,2.47282,9.69451
17573.2,1.0,3.7124,3.71095,2.48143,9.72648
17604.2,1.0,3.71059,3.7115,2.49004,9.75844
17635.2,1.0,3.70881,3.7066,2.49865,9.79039
17666.2,1.0,3.70705,3.70807,2.50727,9.82232
17697.2,1.0,3.70531,3.70443,2.51588,9.85423
17728.2,1.0,3.70359,3.70117,2.52449,9.88613
17759.2,1.0,3.70189,3.70115,2.5331,9.91801
17790.2,1.0,3.70021,3.69885,2.54171,9.94988
17821.2,1.0,3.69855,3.69888,2.55032,9.98174
17852.2,1.0,3.6969,3.69754,2.55893,10.0136
17883.2,1.0,3.69528,3.69621,2.56754,10.0454
17914.2,1.0,3.69366,3.69537,2.57615,10.0772
17940.6,0.0,0.0,3.72171,2.58333,10.1037
17969.8,0.0,0.0,3.73014,2.58333,10.1037
18000.8,0.0,0.0,3.73603,2.58333,10.1037
18031.8,0.0,0.0,3.73966,2.58333,10.1037
18062.8,0.0,0.0,3.74036,2.58333,10.1037
18093.8,0.0,0.0,3.74091,2.58333,10.1037
18124.8,0.0,0.0,3.74168,2.58333,10.1037
18155.8,0.0,0.0,3.74285,2.58333,10.1037
18186.8,0.0,0.0,3.74464,2.58333,10.1037
18217.8,0.0,0.0,3.74484,2.58333,10.1037
18248.8,0.0,0.0,3.74388,2.58333,10.1037
18279.8,0.0,0.0,3.74466,2.58333,10.1037
18310.8,0.0,0.0,3.74438,2.58333,10.1037
18341.8,0.0,0.0,3.74707,2.58333,10.1037
18372.8,0.0,0.0,3.74643,2.58333,10.1037
18403.8,0.0,0.0,3.74373,2.58333,10.1037
18434.8,0.0,0.0,3.74621,2.58333,10.1037
18465.8,0.0,0.0,3.74632,2.58333,10.1037
18496.8,0.0,0.0,3.74478,2.58333,10.1037
18527.8,0.0,0.0,3.74712,2.58333,10.1037
18548.5,5.0,18.0368,3.60736,2.5951,10.1463
18570.9,0.0,0.0,3.69177,2.625,10.2536
18599.8,0.0,0.0,3.71911,2.625,10.2536
18630.8,0.0,0.0,3.72691,2.625,10.2536
18661.8,0.0,0.0,3.73252,2.625,10.2536
18692.8,0.0,0.0,3.73659,2.625,10.2536
18723.8,0.0,0.0,3.73624,2.625,10.2536
18754.8,0.0,0.0,3.73839,2.625,10.2536
18785.8,0.0,0.0,3.73713,2.625,10.2536
18816.8,0.0,0.0,3.73748,2.625,10.2536
18847.8,0.0,0.0,3.73971,2.625,10.2536
18878.8,0.0,0.0,3.73876,2.625,10.2536
18909.8,0.0,0.0,3.74001,2.625,10.2536
18940.8,0.0,0.0,3.73841,2.625,10.2536
18971.8,0.0,0.0,3.74013,2.625,10.2536
19002.8,0.0,0.0,3.74053,2.625,10.2536
19033.8,0.0,0.0,3.74086,2.625,10.2536
19064.8,0.0,0.0,3.7416,2.625,10.2536
19095.8,0.0,0.0,3.73884,2.625,10.2536
19126.8,0.0,0.0,3.73944,2.625,10.2536
19157.8,0.0,0.0,3.74019,2.625,10.2536
19182.2,1.0,3.70456,3.70443,2.62838,10.2661
19213.2,1.0,3.69657,3.69768,2.63699,10.298
19244.2,1.0,3.69197,3.69022,2.6456,10.3298
19275.2,1.0,3.68859,3.68766,2.65421,10.3616
19306.2,1.0,3.68579,3.68516,2.66282,10.3933
19337.2,1.0,3.68332,3.68321,2.67143,10.425
19368.2,1.0,3.68105,3.68079,2.68004,10.4567
19399.2,1.0,3.67893,3.67898,2.68865,10.4884
19430.2,1.0,3.67693,3.6766,2.69726,10.5201
19461.2,1.0,3.67502,3.67566,2.70588,10.5518
19492.2,1.0,3.67319,3.67305,2.71449,10.5834
19523.2,1.0,3.67142,3.67067,2.7231,10.615
19554.2,1.0,3.66971,3.67088,2.73171,10.6466
19585.2,1.0,3.66804,3.66716,2.74032,10.6782
19616.2,1.0,3.66642,3.6671,2.74893,10.7098
19647.2,1.0,3.66484,3.66522,2.75754,10.7414
19678.2,1.0,3.66329,3.66243,2.76615,10.7729
19709.2,1.0,3.66178,3.66206,2.77476,10.8044
19740.2,1.0,3.66029,3.65895,2.78338,10.836
19771.2,1.0,3.65883,3.65819,2.79199,10.8675
19802.2,1.0,3.65739,3.65667,2.8006,10.899
19833.2,1.0,3.65598,3.65541,2.80921,10.9305
19864.2,1.0,3.65458,3.65462,2.81782,10.9619
19895.2,1.0,3.65321,3.65379,2.82643,10.9934
19926.2,1.0,3.65185,3.65199,2.83504,11.0249
19957.2,1.0,3.65051,3.65061,2.84365,11.0563
19988.2,1.0,3.64918,3.64793,2.85226,11.0877
20019.2,1.0,3.64786,3.64726,2.86088,11.1192
20050.2,1.0,3.64656,3.64569,2.86949,11.1506
20074.8,0.0,0.0,3.67669,2.875,11.1707
20105.8,0.0,0.0,3.68486,2.875,11.1707
20136.8,0.0,0.0,3.68884,2.875,11.1707
20167.8,0.0,0.0,3.68974,2.875,11.1707
20198.8,0.0,0.0,3.68982,2.875,11.1707
20229.8,0.0,0.0,3.69175,2.875,11.1707
20260.8,0.0,0.0,3.69368,2.875,11.1707
20291.8,0.0,0.0,3.69393,2.875,11.1707
20322.8,0.0,0.0,3.69274,2.875,11.1707
20353.8,0.0,0.0,3.69286,2.875,11.1707
20384.8,0.0,0.0,3.69587,2.875,11.1707
20415.8,0.0,0.0,3.69501,2.875,11.1707
20446.8,0.0,0.0,3.69614,2.875,11.1707
20477.8,0.0,0.0,3.69462,2.875,11.1707
20508.8,0.0,0.0,3.69689,2.875,11.1707
20539.8,0.0,0.0,3.6966,2.875,11.1707
20570.8,0.0,0.0,3.69678,2.875,11.1707
20601.8,0.0,0.0,3.69598,2.875,11.1707
20632.8,0.0,0.0,3.69848,2.875,11.1707
20663.8,0.0,0.0,3.69728,2.875,11.1707
20684.5,5.0,17.7476,3.55033,2.89509,11.2422
20703.9,0.0,0.0,3.65303,2.91667,11.3186
20734.9,0.0,0.0,3.67583,2.91667,11.3186
20765.9,0.0,0.0,3.68131,2.91667,11.3186
20796.9,0.0,0.0,3.68463,2.91667,11.3186
20827.9,0.0,0.0,3.68748,2.91667,11.3186
20858.9,0.0,0.0,3.68959,2.91667,11.3186
20889.9,0.0,0.0,3.68908,2.91667,11.3186
20920.9,0.0,0.0,3.68824,2.91667,11.3186
20951.9,0.0,0.0,3.68924,2.91667,11.3186
20982.9,0.0,0.0,3.68933,2.91667,11.3186
21013.9,0.0,0.0,3.68898,2.91667,11.3186
21044.9,0.0,0.0,3.68987,2.91667,11.3186
21075.9,0.0,0.0,3.69056,2.91667,11.3186
21106.9,0.0,0.0,3.69043,2.91667,11.3186
21137.9,0.0,0.0,3.69157,2.91667,11.3186
21168.9,0.0,0.0,3.69137,2.91667,11.3186
21199.9,0.0,0.0,3.68999,2.91667,11.3186
21230.9,0.0,0.0,3.68968,2.91667,11.3186
21261.9,0.0,0.0,3.69046,2.91667,11.3186
21292.9,0.0,0.0,3.68935,2.91667,11.3186
21317.1,1.0,3.6542,3.65548,2.92143,11.336
21348.1,1.0,3.64818,3.6481,2.93004,11.3674
21379.1,1.0,3.64461,3.64264,2.93865,11.3988
21410.1,1.0,3.64196,3.64396,2.94726,11.4302
21441.1,1.0,3.63976,3.6389,2.95587,11.4616
21472.1,1.0,3.6378,3.63759,2.96448,11.4929
21503.1,1.0,3.636,3.63682,2.9731,11.5242
21534.1,1.0,3.6343,3.63381,2.98171,11.5555
21565.1,1.0,3.63269,3.63221,2.99032,11.5868
21596.1,1.0,3.63113,3.63223,2.99893,11.6181
21627.1,1.0,3.62963,3.62907,3.00754,11.6493
21658.1,1.0,3.62817,3.62688,3.01615,11.6806
21689.1,1.0,3.62674,3.62511,3.02476,11.7118
21720.1,1.0,3.62535,3.62627,3.03337,11.743
21751.1,1.0,3.62398,3.62383,3.04198,11.7743
21782.1,1.0,3.62263,3.62326,3.0506,11.8055
21813.1,1.0,3.62129,3.62206,3.05921,11.8366
21844.1,1.0,3.61998,3.62055,3.06782,11.8678
21875.1,1.0,3.61868,3.6172,3.07643,11.899
21906.1,1.0,3.61738,3.61832,3.08504,11.9301
21937.1,1.0,3.6161,3.61593,3.09365,11.9613
21968.1,1.0,3.61483,3.61377,3.10226,11.9924
21999.1,1.0,3.61356,3.61464,3.11087,12.0235
22030.1,1.0,3.6123,3.61348,3.11948,12.0547
22061.1,1.0,3.61104,3.61184,3.1281,12.0858
22092.1,1.0,3.60979,3.61007,3.13671,12.1168
22123.1,1.0,3.60854,3.60875,3.14532,12.1479
22154.1,1.0,3.60728,3.60795,3.15393,12.179
22185.1,1.0,3.60603,3.60572,3.16254,12.2101
22210.5,0.0,0.0,3.63983,3.16667,12.2249
22241.5,0.0,0.0,3.64443,3.16667,12.2249
22272.5,0.0,0.0,3.64746,3.16667,12.2249
22303.5,0.0,0.0,3.64919,3.16667,12.2249
22334.5,0.0,0.0,3.64965,3.16667,12.2249
22365.5,0.0,0.0,3.65147,3.16667,12.2249
22396.5,0.0,0.0,3.65001,3.16667,12.2249
22427.5,0.0,0.0,3.65067,3.16667,12.2249
22458.5,0.0,0.0,3.65313,3.16667,12.2249
22489.5,0.0,0.0,3.65221,3.16667,12.2249
22520.5,0.0,0.0,3.65417,3.16667,12.2249
22551.5,0.0,0.0,3.65143,3.16667,12.2249
22582.5,0.0,0.0,3.65255,3.16667,12.2249
22613.5,0.0,0.0,3.65508,3.16667,12.2249
22644.5,0.0,0.0,3.65408,3.16667,12.2249
22675.5,0.0,0.0,3.65601,3.16667,12.2249
22706.5,0.0,0.0,3.65596,3.16667,12.2249
22737.5,0.0,0.0,3.6528,3.16667,12.2249
22768.5,0.0,0.0,3.65416,3.16667,12.2249
22799.5,0.0,0.0,3.65402,3.16667,12.2249
22820.4,5.0,17.5014,3.50029,3.19507,12.3247
22839.1,0.0,0.0,3.61996,3.20833,12.3711
22870.1,0.0,0.0,3.63839,3.20833,12.3711
22901.1,0.0,0.0,3.64054,3.20833,12.3711
22932.1,0.0,0.0,3.64491,3.20833,12.3711
22963.1,0.0,0.0,3.64548,3.20833,12.3711
22994.1,0.0,0.0,3.64563,3.20833,12.3711
23025.1,0.0,0.0,3.64589,3.20833,12.3711
23056.1,0.0,0.0,3.64594,3.20833,12.3711
23087.1,0.0,0.0,3.64806,3.20833,12.3711
23118.1,0.0,0.0,3.64814,3.20833,12.3711
23149.1,0.0,0.0,3.64594,3.20833,12.3711
23180.1,0.0,0.0,3.64753,3.20833,12.3711
23211.1,0.0,0.0,3.64885,3.20833,12.3711
23242.1,0.0,0.0,3.64946,3.20833,12.3711
23273.1,0.0,0.0,3.6479,3.20833,12.3711
23304.1,0.0,0.0,3.65045,3.20833,12.3711
23335.1,0.0,0.0,3.64971,3.20833,12.3711
23366.1,0.0,0.0,3.64921,3.20833,12.3711
23397.1,0.0,0.0,3.64777,3.20833,12.3711
23428.1,0.0,0.0,3.64951,3.20833,12.3711
23452.7,1.0,3.61089,3.60984,3.21465,12.3939
23483.7,1.0,3.60594,3.60523,3.22326,12.425
23514.7,1.0,3.60282,3.60273,3.23187,12.456
23545.7,1.0,3.60041,3.60095,3.24049,12.4871
23576.7,1.0,3.59834,3.59799,3.2491,12.5181
23607.7,1.0,3.59644,3.59611,3.25771,12.549
23638.7,1.0,3.59466,3.59547,3.26632,12.58
23669.7,1.0,3.59295,3.5945,3.27493,12.6109
23700.7,1.0,3.59129,3.59195,3.28354,12.6419
23731.7,1.0,3.58966,3.58933,3.29215,12.6728
23762.7,1.0,3.58807,3.58787,3.30076,12.7037
23793.7,1.0,3.58649,3.58771,3.30937,12.7346
23824.7,1.0,3.58493,3.58519,3.31799,12.7655
23855.7,1.0,3.58337,3.58363,3.3266,12.7963
23886.7,1.0,3.58183,3.58177,3.33521,12.8272
23917.7,1.0,3.58029,3.58174,3.34382,12.858
23948.7,1.0,3.57875,3.58013,3.35243,12.8888
23979.7,1.0,3.57721,3.57667,3.36104,12.9196
24010.7,1.0,3.57567,3.57751,3.36965,12.9504
24041.7,1.0,3.57412,3.57337,3.37826,12.9812
24072.7,1.0,3.57257,3.5713,3.38687,13.012
24103.7,1.0,3.57102,3.5711,3.39549,13.0427
24134.7,1.0,3.56945,3.56846,3.4041,13.0735
24165.7,1.0,3.56788,3.56928,3.41271,13.1042
24196.7,1.0,3.5663,3.56742,3.42132,13.1349
24227.7,1.0,3.56472,3.56549,3.42993,13.1656
24258.7,1.0,3.56312,3.56325,3.43854,13.1963
24289.7,1.0,3.56151,3.56392,3.44715,13.227
24320.7,1.0,3.55989,3.56107,3.45576,13.2577
24345.1,0.0,0.0,3.59701,3.45833,13.2668
24376.1,0.0,0.0,3.60048,3.45833,13.2668
24407.1,0.0,0.0,3.60276,3.45833,13.2668
24438.1,0.0,0.0,3.6041,3.45833,13.2668
24469.1,0.0,0.0,3.60554,3.45833,13.2668
24500.1,0.0,0.0,3.60396,3.45833,13.2668
24531.1,0.0,0.0,3.60538,3.45833,13.2668
24562.1,0.0,0.0,3.60665,3.45833,13.2668
24593.1,0.0,0.0,3.60679,3.45833,13.2668
24624.1,0.0,0.0,3.60435,3.45833,13.2668
24655.1,0.0,0.0,3.60631,3.45833,13.2668
24686.1,0.0,0.0,3.60796,3.45833,13.2668
24717.1,0.0,0.0,3.60964,3.45833,13.2668
24748.1,0.0,0.0,3.608,3.45833,13.2668
24779.1,0.0,0.0,3.60957,3.45833,13.2668
24810.1,0.0,0.0,3.60776,3.45833,13.2668
24841.1,0.0,0.0,3.60896,3.45833,13.2668
24872.1,0.0,0.0,3.60699,3.45833,13.2668
24903.1,0.0,0.0,3.60798,3.45833,13.2668
24930.1,5.0,17.4391,3.48902,3.45842,13.2671
24954.3,5.0,17.2264,3.44464,3.49203,13.3835
24973.2,0.0,0.0,3.57632,3.5,13.4109
25004.2,0.0,0.0,3.58946,3.5,13.4109
25035.2,0.0,0.0,3.59519,3.5,13.4109
25066.2,0.0,0.0,3.59811,3.5,13.4109
25097.2,0.0,0.0,3.5997,3.5,13.4109
25128.2,0.0,0.0,3.59758,3.5,13.4109
25159.2,0.0,0.0,3.59899,3.5,13.4109
25190.2,0.0,0.0,3.60114,3.5,13.4109
25221.2,0.0,0.0,3.59963,3.5,13.4109
25252.2,0.0,0.0,3.60133,3.5,13.4109
25283.2,0.0,0.0,3.60135,3.5,13.4109
25314.2,0.0,0.0,3.601,3.5,13.4109
25345.2,0.0,0.0,3.60035,3.5,13.4109
25376.2,0.0,0.0,3.59951,3.5,13.4109
25407.2,0.0,0.0,3.60168,3.5,13.4109
25438.2,0.0,0.0,3.60178,3.5,13.4109
25469.2,0.0,0.0,3.60215,3.5,13.4109
25500.2,0.0,0.0,3.60265,3.5,13.4109
25531.2,0.0,0.0,3.60122,3.5,13.4109
25560.1,1.0,3.57037,3.5708,3.50002,13.411
25587,1.0,3.56116,3.56205,3.50751,13.4377
25618,1.0,3.55616,3.55697,3.51612,13.4683
25649,1.0,3.55275,3.55272,3.52473,13.4989
25680,1.0,3.54999,3.55196,3.53334,13.5295
25711,1.0,3.54752,3.54715,3.54195,13.5601
25742,1.0,3.54522,3.54644,3.55057,13.5906
25773,1.0,3.54302,3.54336,3.55918,13.6211
25804,1.0,3.54088,3.5429,3.56779,13.6516
25835,1.0,3.53879,3.53978,3.5764,13.6821
25866,1.0,3.53673,3.53587,3.58501,13.7126
25897,1.0,3.53469,3.53454,3.59362,13.743
25928,1.0,3.53268,3.53375,3.60223,13.7734
25959,1.0,3.53068,3.53095,3.61084,13.8039
25990,1.0,3.52869,3.52823,3.61945,13.8342
26021,1.0,3.52672,3.52798,3.62807,13.8646
26052,1.0,3.52475,3.52377,3.63668,13.895
26083,1.0,3.5228,3.52248,3.64529,13.9253
26114,1.0,3.52086,3.52236,3.6539,13.9557
26145,1.0,3.51892,3.5174,3.66251,13.986
26176,1.0,3.51699,3.51703,3.67112,14.0163
26207,1.0,3.51507,3.51533,3.67973,14.0465
26238,1.0,3.51316,3.51412,3.68834,14.0768
26269,1.0,3.51125,3.51009,3.69695,14.107
26300,1.0,3.50936,3.51048,3.70557,14.1373
26331,1.0,3.50747,3.5074,3.71418,14.1675
26362,1.0,3.50559,3.5045,3.72279,14.1977
26393,1.0,3.50372,3.50383,3.7314,14.2279
26424,1.0,3.50187,3.5015,3.74001,14.258
26455,1.0,3.50002,3.49896,3.74862,14.2882
26480,0.0,0.0,3.53837,3.75,14.293
26511,0.0,0.0,3.54276,3.75,14.293
26542,0.0,0.0,3.54428,3.75,14.293
26573,0.0,0.0,3.54451,3.75,14.293
26604,0.0,0.0,3.54609,3.75,14.293
26635,0.0,0.0,3.5485,3.75,14.293
26666,0.0,0.0,3.54711,3.75,14.293
26697,0.0,0.0,3.55003,3.75,14.293
26728,0.0,0.0,3.54873,3.75,14.293
26759,0.0,0.0,3.54807,3.75,14.293
26790,0.0,0.0,3.55053,3.75,14.293
26821,0.0,0.0,3.54953,3.75,14.293
26852,0.0,0.0,3.5492,3.75,14.293
26883,0.0,0.0,3.54938,3.75,14.293
26914,0.0,0.0,3.55085,3.75,14.293
26945,0.0,0.0,3.54923,3.75,14.293
26976,0.0,0.0,3.5504,3.75,14.293
27007,0.0,0.0,3.55151,3.75,14.293
27038,0.0,0.0,3.55011,3.75,14.293
27060.9,5.0,17.1176,3.4226,3.75126,14.2973
27089.1,5.0,16.8891,3.37807,3.79047,14.4304
27108.3,0.0,0.0,3.5194,3.79167,14.4345
27139.3,0.0,0.0,3.53256,3.79167,14.4345
27170.3,0.0,0.0,3.53472,3.79167,14.4345
27201.3,0.0,0.0,3.53934,3.79167,14.4345
27232.3,0.0,0.0,3.53721,3.79167,14.4345
27263.3,0.0,0.0,3.54022,3.79167,14.4345
27294.3,0.0,0.0,3.54094,3.79167,14.4345
27325.3,0.0,0.0,3.53949,3.79167,14.4345
27356.3,0.0,0.0,3.54129,3.79167,14.4345
27387.3,0.0,0.0,3.54342,3.79167,14.4345
27418.3,0.0,0.0,3.54251,3.79167,14.4345
27449.3,0.0,0.0,3.54245,3.79167,14.4345
27480.3,0.0,0.0,3.54151,3.79167,14.4345
27511.3,0.0,0.0,3.54182,3.79167,14.4345
27542.3,0.0,0.0,3.54231,3.79167,14.4345
27573.3,0.0,0.0,3.54089,3.79167,14.4345
27604.3,0.0,0.0,3.54145,3.79167,14.4345
27635.3,0.0,0.0,3.54152,3.79167,14.4345
27666.3,0.0,0.0,3.54081,3.79167,14.4345
27691.8,1.0,3.50836,3.50864,3.79217,14.4363
27722,1.0,3.49919,3.49763,3.80056,14.4656
27753,1.0,3.49455,3.49373,3.80917,14.4957
27784,1.0,3.49128,3.49013,3.81778,14.5258
27815,1.0,3.4886,3.48502,3.82639,14.5559
27846,1.0,3.48621,3.48639,3.835,14.5859
27877,1.0,3.48399,3.48345,3.84361,14.6159
27908,1.0,3.48189,3.48399,3.85222,14.6459
27939,1.0,3.47987,3.47904,3.86083,14.6759
27970,1.0,3.47791,3.47806,3.86945,14.7058
28001,1.0,3.47601,3.47578,3.87806,14.7358
28032,1.0,3.47415,3.47343,3.88667,14.7657
28063,1.0,3.47233,3.47199,3.89528,14.7956
28094,1.0,3.47055,3.46948,3.90389,14.8255
28125,1.0,3.46881,3.47083,3.9125,14.8554
28156,1.0,3.46709,3.46865,3.92111,14.8852
28187,1.0,3.4654,3.46449,3.92972,14.9151
28218,1.0,3.46374,3.46405,3.93833,14.9449
28249,1.0,3.4621,3.46267,3.94695,14.9747
28280,1.0,3.46049,3.4613,3.95556,15.0046
28311,1.0,3.45889,3.45786,3.96417,15.0343
28342,1.0,3.45732,3.45718,3.97278,15.0641
28373,1.0,3.45576,3.45292,3.98139,15.0939
28404,1.0,3.45423,3.45706,3.99,15.1236
28435,1.0,3.45271,3.45165,3.99861,15.1534
28466,1.0,3.4512,3.45165,4.00722,15.1831
28497,1.0,3.44971,3.44988,4.01583,15.2128
28528,1.0,3.44823,3.44702,4.02445,15.2425
28559,1.0,3.44677,3.44663,4.03306,15.2722
28590.0,1.0,3.44531,3.4467,4.04167,15.3019
28614.7,0.0,0.0,3.48572,4.04167,15.3019
28645.7,0.0,0.0,3.48932,4.04167,15.3019
28676.7,0.0,0.0,3.49172,4.04167,15.3019
28707.7,0.0,0.0,3.49197,4.04167,15.3019
28738.7,0.0,0.0,3.49367,4.04167,15.3019
28769.7,0.0,0.0,3.49343,4.04167,15.3019
28800.7,0.0,0.0,3.49416,4.04167,15.3019
28831.7,0.0,0.0,3.494,4.04167,15.3019
28862.7,0.0,0.0,3.49462,4.04167,15.3019
28893.7,0.0,0.0,3.49455,4.04167,15.3019
28924.7,0.0,0.0,3.49542,4.04167,15.3019
28955.7,0.0,0.0,3.49355,4.04167,15.3019
28986.7,0.0,0.0,3.49567,4.04167,15.3019
29017.7,0.0,0.0,3.49529,4.04167,15.3019
29048.7,0.0,0.0,3.49549,4.04167,15.3019
29079.7,0.0,0.0,3.4961,4.04167,15.3019
29110.7,0.0,0.0,3.4973,4.04167,15.3019
29141.7,0.0,0.0,3.49679,4.04167,15.3019
29172.7,0.0,0.0,3.49605,4.04167,15.3019
29192.8,5.0,16.8074,3.36089,4.04557,15.315
29220,0.0,0.0,3.44858,4.08333,15.4411
29242.7,0.0,0.0,3.47207,4.08333,15.4411
29273.7,0.0,0.0,3.48052,4.08333,15.4411
29304.7,0.0,0.0,3.48633,4.08333,15.4411
29335.7,0.0,0.0,3.48682,4.08333,15.4411
29366.7,0.0,0.0,3.48857,4.08333,15.4411
29397.7,0.0,0.0,3.48966,4.08333,15.4411
29428.7,0.0,0.0,3.48759,4.08333,15.4411
29459.7,0.0,0.0,3.48949,4.08333,15.4411
29490.7,0.0,0.0,3.49027,4.08333,15.4411
29521.7,0.0,0.0,3.48911,4.08333,15.4411
29552.7,0.0,0.0,3.48818,4.08333,15.4411
29583.7,0.0,0.0,3.48978,4.08333,15.4411
29614.7,0.0,0.0,3.48947,4.08333,15.4411
29645.7,0.0,0.0,3.48921,4.08333,15.4411
29676.7,0.0,0.0,3.48998,4.08333,15.4411
29707.7,0.0,0.0,3.48872,4.08333,15.4411
29738.7,0.0,0.0,3.49112,4.08333,15.4411
29769.7,0.0,0.0,3.49089,4.08333,15.4411
29800.7,0.0,0.0,3.48909,4.08333,15.4411
29824.7,1.0,3.45364,3.45385,4.08463,15.4456
29855.7,1.0,3.44601,3.44665,4.09324,15.4753
29886.7,1.0,3.44209,3.4435,4.10185,15.5049
29917.7,1.0,3.43932,3.43892,4.11046,15.5346
29948.7,1.0,3.43703,3.43656,4.11907,15.5642
29979.7,1.0,3.43499,3.4354,4.12768,15.5937
30010.7,1.0,3.43307,3.43343,4.13629,15.6233
30041.7,1.0,3.43124,3.42952,4.1449,15.6529
30072.7,1.0,3.42947,3.42836,4.15352,15.6824
30103.7,1.0,3.42772,3.4266,4.16213,15.7119
30134.7,1.0,3.426,3.42555,4.17074,15.7414
30165.7,1.0,3.42429,3.42296,4.17935,15.7709
30196.7,1.0,3.42259,3.42199,4.18796,15.8004
30227.7,1.0,3.42088,3.4221,4.19657,15.8299
30258.7,1.0,3.41917,3.41956,4.20518,15.8593
30289.7,1.0,3.41745,3.41706,4.21379,15.8888
30320.7,1.0,3.41571,3.41388,4.2224,15.9182
30351.7,1.0,3.41394,3.41298,4.23102,15.9476
30382.7,1.0,3.41215,3.41218,4.23963,15.977
30413.7,1.0,3.41033,3.40955,4.24824,16.0064
30444.7,1.0,3.40847,3.4101,4.25685,16.0357
30475.7,1.0,3.40656,3.40549,4.26546,16.0651
30506.7,1.0,3.40462,3.40434,4.27407,16.0944
30537.7,1.0,3.40261,3.40362,4.28268,16.1237
30568.7,1.0,3.40056,3.40154,4.29129,16.153
30599.7,1.0,3.39843,3.39847,4.2999,16.1823
30630.7,1.0,3.39625,3.39598,4.30852,16.2115
30661.7,1.0,3.39398,3.39463,4.31713,16.2407
30692.7,1.0,3.39164,3.39097,4.32574,16.27
30720.1,0.0,0.0,3.42566,4.33333,16.2957
30747.9,0.0,0.0,3.43459,4.33333,16.2957
30778.9,0.0,0.0,3.43899,4.33333,16.2957
30809.9,0.0,0.0,3.44205,4.33333,16.2957
30840.9,0.0,0.0,3.44086,4.33333,16.2957
30871.9,0.0,0.0,3.44198,4.33333,16.2957
30902.9,0.0,0.0,3.44348,4.33333,16.2957
30933.9,0.0,0.0,3.44379,4.33333,16.2957
30964.9,0.0,0.0,3.44309,4.33333,16.2957
30995.9,0.0,0.0,3.44347,4.33333,16.2957
31026.9,0.0,0.0,3.44409,4.33333,16.2957
31057.9,0.0,0.0,3.44538,4.33333,16.2957
31088.9,0.0,0.0,3.44317,4.33333,16.2957
31119.9,0.0,0.0,3.44416,4.33333,16.2957
31150.9,0.0,0.0,3.4432,4.33333,16.2957
31181.9,0.0,0.0,3.44545,4.33333,16.2957
31212.9,0.0,0.0,3.44733,4.33333,16.2957
31243.9,0.0,0.0,3.44606,4.33333,16.2957
31274.9,0.0,0.0,3.4458,4.33333,16.2957
31305.9,0.0,0.0,3.44719,4.33333,16.2957
31325.2,5.0,16.4753,3.29474,4.34056,16.3196
31350.1,0.0,0.0,3.38175,4.375,16.4321
31374,0.0,0.0,3.41333,4.375,16.4321
31405,0.0,0.0,3.42477,4.375,16.4321
31436,0.0,0.0,3.42908,4.375,16.4321
31467,0.0,0.0,3.43073,4.375,16.4321
31498,0.0,0.0,3.43083,4.375,16.4321
31529,0.0,0.0,3.43182,4.375,16.4321
31560,0.0,0.0,3.43222,4.375,16.4321
31591,0.0,0.0,3.43494,4.375,16.4321
31622,0.0,0.0,3.43454,4.375,16.4321
31653,0.0,0.0,3.4308,4.375,16.4321
31684,0.0,0.0,3.43329,4.375,16.4321
31715,0.0,0.0,3.4347,4.375,16.4321
31746,0.0,0.0,3.43449,4.375,16.4321
31777,0.0,0.0,3.43399,4.375,16.4321
31808,0.0,0.0,3.4342,4.375,16.4321
31839,0.0,0.0,3.43369,4.375,16.4321
31870,0.0,0.0,3.43288,4.375,16.4321
31901,0.0,0.0,3.43371,4.375,16.4321
31932,0.0,0.0,3.43536,4.375,16.4321
31955.9,1.0,3.39329,3.3938,4.37663,16.4377
31986.9,1.0,3.38316,3.38266,4.38524,16.4668
32017.9,1.0,3.37709,3.37847,4.39385,16.4959
32048.9,1.0,3.37218,3.37303,4.40246,16.525
32079.9,1.0,3.36771,3.36568,4.41107,16.554
32110.9,1.0,3.36339,3.36394,4.41968,16.583
32141.9,1.0,3.35909,3.36083,4.42829,16.6119
32172.9,1.0,3.35475,3.35651,4.4369,16.6408
32203.9,1.0,3.35033,3.35053,4.44552,16.6697
32234.9,1.0,3.3458,3.3455,4.45413,16.6985
32265.9,1.0,3.34116,3.34163,4.46274,16.7273
32296.9,1.0,3.3364,3.33466,4.47135,16.7561
32327.9,1.0,3.33151,3.33232,4.47996,16.7848
32358.9,1.0,3.32649,3.32708,4.48857,16.8134
32389.9,1.0,3.32135,3.32031,4.49718,16.8421
32420.9,1.0,3.31608,3.3172,4.50579,16.8706
32451.9,1.0,3.3107,3.31064,4.5144,16.8992
32482.9,1.0,3.3052,3.30499,4.52302,16.9277
32513.9,1.0,3.2996,3.30085,4.53163,16.9561
32544.9,1.0,3.2939,3.29421,4.54024,16.9845
32575.9,1.0,3.28812,3.28867,4.54885,17.0128
32606.9,1.0,3.28227,3.28195,4.55746,17.0411
32637.9,1.0,3.27636,3.27599,4.56607,17.0694
32668.9,1.0,3.2704,3.27078,4.57468,17.0975
32699.9,1.0,3.26439,3.26328,4.58329,17.1257
32730.9,1.0,3.25837,3.25728,4.5919,17.1538
32761.9,1.0,3.25232,3.25233,4.60052,17.1818
32792.9,1.0,3.24627,3.24703,4.60913,17.2098
32823.9,1.0,3.24023,3.24084,4.61774,17.2377
32850.3,0.0,0.0,3.27747,4.625,17.2612
32878.7,0.0,0.0,3.29,4.625,17.2612
32909.7,0.0,0.0,3.29488,4.625,17.2612
32940.7,0.0,0.0,3.29584,4.625,17.2612
32971.7,0.0,0.0,3.29892,4.625,17.2612
33002.7,0.0,0.0,3.29861,4.625,17.2612
33033.7,0.0,0.0,3.30151,4.625,17.2612
33064.7,0.0,0.0,3.30044,4.625,17.2612
33095.7,0.0,0.0,3.29915,4.625,17.2612
33126.7,0.0,0.0,3.3023,4.625,17.2612
33157.7,0.0,0.0,3.30138,4.625,17.2612
33188.7,0.0,0.0,3.30163,4.625,17.2612
33219.7,0.0,0.0,3.30173,4.625,17.2612
33250.7,0.0,0.0,3.30204,4.625,17.2612
33281.7,0.0,0.0,3.30367,4.625,17.2612
33312.7,0.0,0.0,3.30305,4.625,17.2612
33343.7,0.0,0.0,3.30328,4.625,17.2612
33374.7,0.0,0.0,3.30446,4.625,17.2612
33405.7,0.0,0.0,3.30433,4.625,17.2612
33436.7,0.0,0.0,3.30289,4.625,17.2612
33453.9,5.0,15.6753,3.1336,4.63043,17.2783
33480,0.0,0.0,3.20161,4.66667,17.3903
33501.2,0.0,0.0,3.24681,4.66667,17.3903
33532.2,0.0,0.0,3.26192,4.66667,17.3903
33563.2,0.0,0.0,3.26828,4.66667,17.3903
33594.2,0.0,0.0,3.2719,4.66667,17.3903
33625.2,0.0,0.0,3.27254,4.66667,17.3903
33656.2,0.0,0.0,3.27347,4.66667,17.3903
33687.2,0.0,0.0,3.27292,4.66667,17.3903
33718.2,0.0,0.0,3.2756,4.66667,17.3903
33749.2,0.0,0.0,3.27395,4.66667,17.3903
33780.2,0.0,0.0,3.27433,4.66667,17.3903
33811.2,0.0,0.0,3.27483,4.66667,17.3903
33842.2,0.0,0.0,3.27534,4.66667,17.3903
33873.2,0.0,0.0,3.2747,4.66667,17.3903
33904.2,0.0,0.0,3.27538,4.66667,17.3903
33935.2,0.0,0.0,3.27454,4.66667,17.3903
33966.2,0.0,0.0,3.27529,4.66667,17.3903
33997.2,0.0,0.0,3.27385,4.66667,17.3903
34028.2,0.0,0.0,3.27679,4.66667,17.3903
34059.2,0.0,0.0,3.27368,4.66667,17.3903
34083.6,1.0,3.22874,3.22924,4.66768,17.3936
34114.6,1.0,3.21191,3.21155,4.67629,17.4213
34145.6,1.0,3.2021,3.2018,4.6849,17.4489
34176.6,1.0,3.1942,3.19454,4.69351,17.4764
34207.6,1.0,3.18713,3.18615,4.70212,17.5039
34238.6,1.0,3.18048,3.18023,4.71073,17.5313
34269.6,1.0,3.17405,3.17467,4.71934,17.5587
34300.6,1.0,3.16775,3.1685,4.72795,17.586
34331.6,1.0,3.16151,3.15949,4.73657,17.6132
34362.6,1.0,3.15529,3.15568,4.74518,17.6404
34393.6,1.0,3.14907,3.15203,4.75379,17.6676
34424.6,1.0,3.14281,3.14151,4.7624,17.6946
34455.6,1.0,3.1365,3.13572,4.77101,17.7217
34486.6,1.0,3.13011,3.13053,4.77962,17.7487
34517.6,1.0,3.12362,3.12327,4.78823,17.7756
34548.6,1.0,3.11701,3.11575,4.79684,17.8025
34579.6,1.0,3.11026,3.1103,4.80545,17.8293
34610.6,1.0,3.10335,3.10304,4.81407,17.856
34641.6,1.0,3.09625,3.0944,4.82268,17.8827
34672.6,1.0,3.08894,3.08868,4.83129,17.9093
34703.6,1.0,3.0814,3.08171,4.8399,17.9359
34734.6,1.0,3.07361,3.07425,4.84851,17.9624
34765.6,1.0,3.06553,3.06373,4.85712,17.9888
34796.6,1.0,3.05715,3.05739,4.86573,18.0152
34827.6,1.0,3.04843,3.04921,4.87434,18.0415
34858.6,1.0,3.03935,3.03983,4.88295,18.0677
34889.6,1.0,3.02988,3.03019,4.89157,18.0938
34920.6,1.0,3.01999,3.02181,4.90018,18.1199
34951.6,1.0,3.00964,3.00993,4.90879,18.1458
34980.1,0.0,0.0,3.04881,4.91667,18.1695
35005.5,0.0,0.0,3.06822,4.91667,18.1695
35036.5,0.0,0.0,3.07845,4.91667,18.1695
35067.5,0.0,0.0,3.07972,4.91667,18.1695
35098.5,0.0,0.0,3.08148,4.91667,18.1695
35129.5,0.0,0.0,3.08257,4.91667,18.1695
35160.5,0.0,0.0,3.08381,4.91667,18.1695
35191.5,0.0,0.0,3.08295,4.91667,18.1695
35222.5,0.0,0.0,3.08266,4.91667,18.1695
35253.5,0.0,0.0,3.08421,4.91667,18.1695
35284.5,0.0,0.0,3.08506,4.91667,18.1695
35315.5,0.0,0.0,3.08455,4.91667,18.1695
35346.5,0.0,0.0,3.08556,4.91667,18.1695
35377.5,0.0,0.0,3.08575,4.91667,18.1695
35408.5,0.0,0.0,3.08605,4.91667,18.1695
35439.5,0.0,0.0,3.08546,4.91667,18.1695
35470.5,0.0,0.0,3.08639,4.91667,18.1695
35501.5,0.0,0.0,3.08451,4.91667,18.1695
35532.5,0.0,0.0,3.08588,4.91667,18.1695
35563.5,0.0,0.0,3.08435,4.91667,18.1695
35581.7,5.0,14.5405,2.91067,4.91896,18.1762
35610.0,5.0,13.6514,2.73014,4.95833,18.2867
35626.2,0.0,0.0,2.98164,4.95833,18.2867
35656.9,0.0,0.0,3.00996,4.95833,18.2867
35687.9,0.0,0.0,3.02218,4.95833,18.2867
35718.9,0.0,0.0,3.02628,4.95833,18.2867
35749.9,0.0,0.0,3.02931,4.95833,18.2867
35780.9,0.0,0.0,3.03191,4.95833,18.2867
35811.9,0.0,0.0,3.03177,4.95833,18.2867
35842.9,0.0,0.0,3.03277,4.95833,18.2867
35873.9,0.0,0.0,3.03355,4.95833,18.2867
35904.9,0.0,0.0,3.03163,4.95833,18.2867
35935.9,0.0,0.0,3.03215,4.95833,18.2867
35966.9,0.0,0.0,3.03417,4.95833,18.2867
35997.9,0.0,0.0,3.03445,4.95833,18.2867
36028.9,0.0,0.0,3.03539,4.95833,18.2867
36059.9,0.0,0.0,3.03449,4.95833,18.2867
36090.9,0.0,0.0,3.03517,4.95833,18.2867
36121.9,0.0,0.0,3.03298,4.95833,18.2867
36152.9,0.0,0.0,3.0335,4.95833,18.2867
36183.9,0.0,0.0,3.03435,4.95833,18.2867
36210.0,0.0,0.0,3.03628,4.95833,18.2867