File: output/use_case_3.csv
Time [s],Current [A],Power [W],Voltage [V],Capacity [Ah],Energy [Wh]
0.0,0.194,0.793346,4.0916,0.0,0.0
1.7,0.04,0.163805,4.09687,3.94722e-05,0.00016147
3.4,0.04,0.163803,4.09565,6.90556e-05,0.00028257
5.1,0.014,0.0573443,4.09443,0.000107889,0.000441495
6.8,2.924,11.7145,4.00533,0.00123908,0.00497451
8.5,2.873,11.5105,4.00774,0.00258983,0.0103872
10.2,2.924,11.7085,4.00527,0.00394356,0.0158103
11.9,4.547,18.051,3.96962,0.00601475,0.0240383
13.6,4.598,18.2421,3.96845,0.00822186,0.0327934
15.3,4.469,17.7343,3.9692,0.0103931,0.0414058
17.0,4.598,18.2288,3.96434,0.0126146,0.0502099
18.7,4.727,18.723,3.96122,0.0147609,0.0587195
20.4,4.675,18.515,3.96251,0.0169609,0.0674344
22.1,4.521,17.9119,3.96119,0.0191565,0.0761294
23.8,4.624,18.3056,3.95917,0.0213242,0.0847137
25.5,6.658,26.1277,3.92496,0.0235464,0.0935046
27.2,6.658,26.1115,3.92163,0.026694,0.105852
28.9,6.555,25.7016,3.92044,0.0298382,0.118179
30.6,6.581,25.7861,3.91773,0.0329711,0.130455
32.3,6.684,26.1636,3.91412,0.0361367,0.14285
34.0,6.787,26.5411,3.91201,0.0392566,0.155062
35.7,5.499,21.6042,3.92767,0.0422934,0.166949
37.4,5.783,22.6848,3.92474,0.0449691,0.177452
39.1,5.68,22.282,3.92268,0.0476511,0.187975
40.8,5.68,22.2738,3.92132,0.0503334,0.198495
42.5,5.886,23.0537,3.91718,0.0530284,0.20906
44.2,5.603,21.9624,3.92,0.055745,0.219704
45.9,5.68,22.2496,3.91648,0.0584266,0.230209
47.6,5.551,21.7483,3.91776,0.0610443,0.240467
49.3,8.384,32.4769,3.87271,0.0640162,0.252065
51.0,8.59,33.2159,3.86838,0.0680203,0.267562
52.7,8.513,32.8926,3.86361,0.0720451,0.28312
54.4,3.542,13.9652,3.94144,0.0753674,0.295992
56.1,3.826,15.0679,3.93683,0.0770844,0.30276
57.8,3.671,14.4724,3.94165,0.0788129,0.309574
59.5,3.645,14.3748,3.94415,0.0805135,0.316281
61.2,3.774,14.8759,3.93995,0.0822169,0.323001
62.9,3.8,14.9778,3.94183,0.0839704,0.329915
64.6,3.697,14.5802,3.94474,0.0857161,0.336799
66.3,3.542,13.9809,3.94665,0.0874303,0.343562
68.0,3.645,14.3801,3.94496,0.0891524,0.350356
69.7,3.645,14.3803,3.94514,0.0908843,0.357188
71.4,3.568,14.082,3.94759,0.0926057,0.363979
73.1,3.8,14.9797,3.94094,0.0943463,0.370845
74.8,3.748,14.7779,3.94255,0.0961098,0.377799
76.5,3.697,14.5801,3.94442,0.0978212,0.384548
78.2,3.722,14.6763,3.94199,0.0995226,0.391261
79.9,10.444,40.075,3.8368,0.103133,0.405198
81.6,10.367,39.7134,3.83047,0.108032,0.423981
83.3,10.238,39.1653,3.82558,0.112942,0.442769
85.0,4.856,18.9487,3.90165,0.116118,0.455026
86.7,4.624,18.064,3.90831,0.11837,0.463818
88.4,4.572,17.8661,3.90748,0.120589,0.472485
90.1,4.701,18.3592,3.90516,0.122813,0.481168
91.8,4.366,17.0777,3.91298,0.124988,0.489668
93.5,4.675,18.2597,3.90588,0.127134,0.498054
95.2,4.727,18.4571,3.90607,0.129335,0.506652
96.9,4.675,18.2571,3.90567,0.131531,0.51523
98.6,4.547,17.7659,3.90598,0.133736,0.523838
100.3,4.701,18.3526,3.90371,0.135928,0.532401
102.0,4.598,17.9566,3.90553,0.138146,0.541057
103.7,4.624,18.054,3.9022,0.140337,0.549613
105.4,6.401,24.7867,3.87321,0.143283,0.561028
107.1,6.633,25.6452,3.86723,0.146343,0.572871
108.8,6.504,25.1431,3.86558,0.149461,0.584923
110.5,6.427,24.8377,3.86385,0.152602,0.597053
112.2,6.452,24.9182,3.86363,0.155685,0.608961
113.9,6.555,25.2918,3.8599,0.158757,0.620819
115.6,6.504,25.0884,3.8576,0.161835,0.632696
117.3,6.555,25.2673,3.85471,0.164934,0.644642
119.0,2.976,11.6646,3.91946,0.167411,0.654223
120.7,3.13,12.2654,3.91858,0.168801,0.659672
122.4,3.001,11.7744,3.92144,0.170207,0.66519
124.1,3.079,12.0805,3.9237,0.1716,0.670658
125.8,3.053,11.9847,3.92683,0.173005,0.676173
127.5,2.821,11.0918,3.93196,0.174411,0.681698
129.2,2.95,11.5939,3.93085,0.175808,0.687185
130.9,2.795,10.9971,3.93703,0.177183,0.692592
132.6,2.924,11.499,3.93239,0.178542,0.697938
134.3,2.873,11.3036,3.93443,0.179953,0.703485
136.0,2.976,11.7042,3.93332,0.181334,0.708917
137.7,2.821,11.1059,3.93678,0.182712,0.714338
139.4,2.976,11.7074,3.93301,0.184087,0.719749
141.1,3.053,12.0064,3.93415,0.185482,0.725239
142.8,3.001,11.8062,3.93679,0.186915,0.730872
144.5,3.001,11.8071,3.93345,0.188314,0.736379
146.2,3.053,12.009,3.93453,0.189728,0.741944
147.9,4.16,16.2661,3.90967,0.191635,0.749403
149.6,4.289,16.7554,3.90609,0.193621,0.757166
151.3,4.16,16.2576,3.90893,0.195589,0.764858
153.0,4.263,16.6479,3.90536,0.197582,0.772641
154.7,4.392,17.1367,3.90067,0.19962,0.780598
156.4,4.238,16.5436,3.90374,0.201687,0.788662
158.1,4.238,16.54,3.90205,0.203731,0.796637
159.8,4.315,16.831,3.90019,0.205744,0.804492
161.5,4.238,16.5338,3.90222,0.207733,0.812253
163.2,4.289,16.7255,3.90076,0.209763,0.820172
164.9,4.083,15.9349,3.90241,0.211732,0.82785
166.6,4.341,16.9184,3.89749,0.213763,0.835771
168.3,4.238,16.5224,3.89633,0.215766,0.843579
170.0,4.263,16.6147,3.89863,0.217789,0.851465
171.7,3.027,11.8718,3.91948,0.219692,0.858888
173.4,2.976,11.6778,3.92398,0.221072,0.864302
175.1,3.001,11.7761,3.92528,0.222528,0.870015
176.8,3.001,11.7776,3.92498,0.223967,0.875659
178.5,2.924,11.4821,3.92563,0.225346,0.881075
180.2,2.924,11.4833,3.92679,0.226745,0.886567
181.9,3.053,11.9824,3.9252,0.228158,0.892114
183.6,6.04,23.375,3.86935,0.229733,0.898281
185.3,6.092,23.5509,3.86632,0.232577,0.909282
187.0,6.118,23.6305,3.86237,0.235426,0.920294
188.7,6.015,23.2257,3.86096,0.238278,0.931308
190.4,6.015,23.2111,3.8574,0.241118,0.942272
192.1,5.809,22.422,3.86006,0.243904,0.953024
193.8,5.757,22.2145,3.85962,0.246677,0.963721
195.5,5.963,22.9779,3.8538,0.249484,0.97454
197.2,5.963,22.9661,3.85066,0.252311,0.985428
198.9,5.963,22.9556,3.84842,0.255119,0.996244
200.6,6.092,23.4294,3.84661,0.257907,1.00697
202.3,3.594,13.9816,3.89077,0.260087,1.0154
204.0,3.413,13.2936,3.89598,0.261769,1.02195
205.7,3.491,13.5955,3.89286,0.263412,1.02835
207.4,8.513,32.4356,3.80962,0.26647,1.04006
209.1,8.719,33.1509,3.80097,0.270505,1.05542
210.8,8.616,32.7302,3.79784,0.274557,1.07082
212.5,8.487,32.2163,3.79822,0.278664,1.08641
214.2,6.066,23.2216,3.82832,0.282463,1.10084
215.9,6.015,23.0277,3.82713,0.285292,1.11167
217.6,6.118,23.4071,3.82538,0.288181,1.12273
219.3,6.04,23.1115,3.82657,0.291022,1.1336
221.0,6.092,23.3008,3.82407,0.293858,1.14445
222.7,6.118,23.392,3.82287,0.296712,1.15537
224.4,6.118,23.3866,3.82216,0.299608,1.16644
226.1,5.963,22.8028,3.82403,0.302442,1.17728
227.8,6.143,23.4669,3.82097,0.305342,1.18836
229.5,6.015,22.9851,3.82154,0.308164,1.19914
231.2,3.001,11.634,3.87545,0.310764,1.20909
232.9,2.95,11.4472,3.88008,0.312189,1.21461
234.6,3.156,12.2397,3.87953,0.313586,1.22004
236.3,2.744,10.6721,3.88934,0.314955,1.22536
238.0,2.976,11.5647,3.88488,0.316286,1.23053
239.7,2.77,10.7812,3.8927,0.317613,1.23569
241.4,4.624,17.8294,3.85482,0.319225,1.24194
243.1,4.624,17.8259,3.85432,0.321391,1.25029
244.8,4.65,17.9205,3.85348,0.323595,1.25879
246.5,4.753,18.3056,3.8533,0.325794,1.26726
248.2,4.65,17.9143,3.85264,0.328001,1.27576
249.9,4.753,18.2993,3.85037,0.330218,1.2843
251.6,4.444,17.1326,3.85597,0.33236,1.29256
253.3,4.675,18.0011,3.84978,0.334562,1.30104
255.0,4.701,18.0963,3.8504,0.336785,1.3096
256.7,6.813,25.981,3.8134,0.339435,1.31975
258.4,6.633,25.2953,3.81417,0.342549,1.33163
260.1,6.839,26.0424,3.80944,0.345671,1.34353
261.8,6.633,25.2629,3.80881,0.348831,1.35556
263.5,6.504,24.7708,3.80932,0.351959,1.36748
265.2,6.607,25.14,3.80533,0.355071,1.37932
266.9,5.706,21.7866,3.81585,0.357919,1.39018
268.6,5.706,21.7824,3.81785,0.360599,1.40042
270.3,5.551,21.2007,3.81905,0.363287,1.41068
272.0,5.68,21.6779,3.81739,0.365927,1.42075
273.7,5.68,21.6737,3.81664,0.368587,1.43091
275.4,5.809,22.1499,3.81453,0.371259,1.4411
277.1,5.525,21.0886,3.8192,0.3739,1.45118
278.8,5.525,21.085,3.81592,0.376527,1.46121
280.5,8.41,31.7079,3.7704,0.380021,1.47443
282.2,8.332,31.3908,3.76681,0.384022,1.4895
283.9,8.513,32.0219,3.76152,0.388018,1.50454
285.6,3.491,13.4207,3.84396,0.39041,1.51363
287.3,3.568,13.7189,3.84715,0.392128,1.52023
289.0,3.619,13.9175,3.84601,0.393857,1.52688
290.7,3.645,14.0211,3.84888,0.395593,1.53356
292.4,3.748,14.4141,3.84672,0.397325,1.54022
294.1,3.851,14.8065,3.84369,0.399108,1.54708
295.8,3.697,14.2289,3.8491,0.400852,1.55379
297.5,3.826,14.7186,3.84721,0.402619,1.56059
299.2,3.774,14.525,3.84693,0.404357,1.56728
300.9,3.645,14.04,3.8518,0.406093,1.57396
302.6,3.619,13.9436,3.85415,0.407848,1.58072
304.3,3.722,14.3345,3.85203,0.409597,1.58746
306.0,3.671,14.1438,3.85345,0.411286,1.59397
307.7,3.697,14.2432,3.85292,0.413029,1.60068
309.4,3.774,14.5351,3.8516,0.414767,1.60738
311.1,10.418,39.0071,3.74412,0.419648,1.62568
312.8,10.393,38.8462,3.73779,0.424554,1.64403
314.5,4.572,17.452,3.81652,0.429279,1.66169
316.2,4.624,17.6527,3.81808,0.431467,1.67004
317.9,4.65,17.7537,3.81691,0.433669,1.67845
319.6,4.598,17.5623,3.82017,0.435854,1.68679
321.3,4.727,18.0464,3.818,0.438036,1.69513
323.0,4.727,18.048,3.81592,0.440243,1.70355
324.7,4.701,17.9515,3.81764,0.44247,1.71206
326.4,4.675,17.8548,3.82044,0.444661,1.72043
328.1,4.598,17.5681,3.82109,0.446825,1.7287
329.8,4.521,17.2803,3.82207,0.44902,1.73708
331.5,4.598,17.5687,3.82172,0.451172,1.7453
333.2,4.753,18.1472,3.81785,0.45337,1.7537
334.9,4.701,17.9521,3.81998,0.455589,1.76218
336.6,6.555,24.8176,3.78441,0.458717,1.77402
338.3,6.684,25.2791,3.78194,0.461823,1.78577
340.0,6.607,24.9824,3.78166,0.46496,1.79763
341.7,6.53,24.6887,3.78167,0.468016,1.80919
343.4,6.427,24.2987,3.77872,0.4711,1.82085
345.1,6.71,25.3299,3.77561,0.474204,1.83258
346.8,6.298,23.8056,3.78099,0.477298,1.84426
348.5,6.633,25.0296,3.77303,0.480346,1.85577
350.2,2.898,11.1351,3.84262,0.482183,1.86278
351.9,3.104,11.9203,3.83998,0.483616,1.86828
353.6,2.976,11.4426,3.84614,0.484996,1.87359
355.3,2.95,11.3492,3.84708,0.486416,1.87905
357.0,3.053,11.7432,3.84755,0.487848,1.88455
358.7,2.976,11.4558,3.84962,0.489272,1.89003
360.4,3.053,11.7508,3.84898,0.490695,1.89551
362.1,2.976,11.4624,3.85093,0.492101,1.90092
363.8,2.95,11.3668,3.8512,0.4935,1.90631
365.5,2.95,11.3695,3.85356,0.494868,1.91159
367.2,2.873,11.0801,3.85841,0.496236,1.91686
368.9,3.13,12.0569,3.85181,0.497646,1.9223
370.6,2.976,11.4749,3.85642,0.49903,1.92764
372.3,2.924,11.2795,3.85655,0.500412,1.93297
374.0,3.104,11.9638,3.85619,0.501798,1.93831
375.7,3.001,11.5745,3.85666,0.503241,1.94387
377.4,4.289,16.4334,3.8305,0.504762,1.94973
379.1,4.238,16.2382,3.83133,0.50677,1.95743
380.8,4.341,16.6211,3.82861,0.508786,1.96515
382.5,4.238,16.2316,3.82877,0.510805,1.97288
384.2,4.392,16.8063,3.82666,0.512811,1.98056
385.9,4.238,16.2264,3.8293,0.514818,1.98824
387.6,4.212,16.1267,3.82879,0.516835,1.99597
389.3,4.212,16.1246,3.82902,0.518842,2.00365
391.0,4.289,16.4109,3.82589,0.520865,2.01139
392.7,4.444,16.9894,3.82071,0.522893,2.01915
394.4,4.444,16.9875,3.82172,0.524941,2.02698
396.1,4.392,16.7908,3.82187,0.526944,2.03464
397.8,4.186,16.0173,3.82671,0.528966,2.04238
399.5,4.032,15.4383,3.82865,0.530942,2.04994
401.2,4.212,16.1121,3.82564,0.532929,2.05754
402.9,3.001,11.5522,3.84901,0.534775,2.06461
404.6,3.053,11.7517,3.85111,0.536173,2.07
406.3,3.13,12.0453,3.84855,0.537613,2.07554
408.0,2.898,11.1686,3.85387,0.539013,2.08093
409.7,3.285,12.6355,3.84834,0.540414,2.08633
411.4,2.898,11.172,3.85607,0.541861,2.0919
413.1,2.95,11.3706,3.85591,0.543254,2.09727
414.8,5.989,22.7507,3.79715,0.54496,2.10381
416.5,5.912,22.4491,3.79763,0.547775,2.1145
418.2,5.963,22.6238,3.79506,0.550582,2.12515
419.9,5.886,22.3256,3.79347,0.553419,2.13591
421.6,6.118,23.171,3.78582,0.556251,2.14665
423.3,6.143,23.2516,3.78327,0.559096,2.15742
425.0,5.886,22.2922,3.78825,0.561936,2.16818
426.7,5.937,22.4716,3.78344,0.564734,2.17877
428.4,6.092,23.034,3.7816,0.567588,2.18957
430.1,5.989,22.6454,3.78094,0.570416,2.20026
431.8,5.783,21.8781,3.78385,0.573204,2.2108
433.5,3.697,14.1248,3.81987,0.575286,2.21872
435.2,3.568,13.6448,3.82349,0.576986,2.22522
436.9,3.619,13.8396,3.82333,0.57866,2.23162
438.6,8.616,32.2352,3.7421,0.582002,2.24417
440.3,8.564,32.0085,3.73577,0.586072,2.25939
442.0,8.461,31.6019,3.73435,0.590103,2.27445
443.7,8.538,31.8503,3.73117,0.594119,2.28944
445.4,5.989,22.5497,3.76582,0.597804,2.30321
447.1,5.989,22.5474,3.76592,0.600668,2.31399
448.8,5.989,22.5446,3.76512,0.603506,2.32467
450.5,6.195,23.2963,3.76014,0.606355,2.33539
452.2,6.092,22.9147,3.76232,0.609221,2.34618
453.9,6.04,22.7193,3.76067,0.612098,2.357
455.6,6.195,23.2825,3.75963,0.615006,2.36793
457.3,5.886,22.1462,3.76283,0.617854,2.37864
459.0,6.015,22.6146,3.75877,0.620715,2.38939
460.7,5.963,22.4201,3.7606,0.623562,2.4001
462.4,0.169,0.657004,3.8883,0.625573,2.40766
464.1,-0.012,-0.0467799,3.89839,0.625618,2.40783
465.8,0.117,0.456229,3.90037,0.625641,2.40792
467.5,0.04,0.156234,3.90597,0.625683,2.40809
469.2,2.924,11.2095,3.83263,0.626332,2.41058
470.9,2.898,11.1132,3.83488,0.627709,2.41586
472.6,2.847,10.9224,3.83657,0.629043,2.42097
474.3,4.598,17.48,3.80256,0.630836,2.42781
476.0,4.65,17.668,3.79909,0.63303,2.43615
477.7,4.778,18.1386,3.79633,0.635212,2.44444
479.4,4.727,17.9448,3.7939,0.637393,2.45272
481.1,4.598,17.4623,3.79922,0.639564,2.46097
482.8,4.624,17.5554,3.79479,0.641764,2.46932
484.5,4.701,17.8385,3.7946,0.643964,2.47767
486.2,4.469,16.9735,3.79796,0.646143,2.48594
487.9,4.495,17.0678,3.79703,0.648303,2.49414
489.6,6.787,25.5024,3.75731,0.651154,2.50489
491.3,6.684,25.1082,3.75729,0.654323,2.51679
493.0,6.71,25.1884,3.75563,0.65744,2.5285
494.7,6.736,25.2684,3.75288,0.6606,2.54036
496.4,6.607,24.7846,3.75016,0.663745,2.55216
498.1,6.555,24.5826,3.74814,0.666869,2.56388
499.8,5.628,21.1844,3.7642,0.66959,2.57411
501.5,5.783,21.7497,3.75983,0.672274,2.58421
503.2,5.757,21.6497,3.76106,0.674963,2.59433
504.9,5.731,21.5501,3.76115,0.677639,2.60439
506.6,5.706,21.4536,3.76032,0.680383,2.61471
508.3,5.809,21.8271,3.75687,0.683057,2.62476
510.0,5.68,21.3511,3.75688,0.685685,2.63465
511.7,5.551,20.8739,3.7605,0.688357,2.64469
513.4,8.487,31.5123,3.71163,0.69218,2.65891
515.1,8.538,31.6643,3.70749,0.696205,2.67384
516.8,8.641,32.0049,3.70355,0.700216,2.68871
518.5,3.516,13.3236,3.79042,0.702062,2.69568
520.2,3.516,13.3306,3.79189,0.70379,2.70223
521.9,3.568,13.5298,3.79348,0.705494,2.70868
523.6,3.542,13.4383,3.79489,0.707188,2.71511
525.3,3.722,14.1121,3.79035,0.70892,2.72168
527.0,3.671,13.9257,3.79232,0.710683,2.72836
528.7,3.619,13.7353,3.79586,0.712416,2.73494
530.4,3.594,13.645,3.79631,0.714122,2.74141
532.1,3.748,14.2208,3.79381,0.715849,2.74797
533.8,3.8,14.4163,3.79288,0.717585,2.75456
535.5,3.671,13.938,3.79567,0.719308,2.7611
537.2,3.748,14.2261,3.79732,0.721066,2.76777
538.9,3.748,14.2276,3.79767,0.7228,2.77436
540.6,3.491,13.2712,3.80208,0.724502,2.78082
542.3,10.393,38.4002,3.69506,0.726975,2.7901
544.0,10.264,37.8618,3.68975,0.731896,2.80826
545.7,10.444,38.4339,3.6814,0.736805,2.82634
547.4,4.675,17.5823,3.76148,0.740907,2.84148
549.1,4.701,17.6832,3.76242,0.743173,2.85001
550.8,4.907,18.4441,3.75788,0.745398,2.85838
552.5,4.753,17.8807,3.76253,0.747604,2.86668
554.2,4.753,17.883,3.76142,0.74982,2.87501
555.9,4.444,16.7473,3.7698,0.751935,2.88299
557.6,4.701,17.6951,3.76651,0.75413,2.89125
559.3,4.675,17.5999,3.76529,0.756333,2.89954
561.0,4.701,17.6957,3.76457,0.758541,2.90786
562.7,4.572,17.2209,3.76681,0.760733,2.91611
564.4,4.65,17.5078,3.76451,0.762953,2.92446
566.1,4.65,17.5075,3.76515,0.765145,2.93272
567.8,6.427,24.0007,3.733,0.767796,2.94265
569.5,6.581,24.5468,3.72874,0.770824,2.95395
571.2,6.684,24.9064,3.72638,0.773947,2.9656
572.9,6.684,24.8932,3.72424,0.777072,2.97724
574.6,6.504,24.2301,3.72503,0.780186,2.98884
576.3,6.401,23.847,3.72577,0.783249,3.00025
578.0,6.478,24.1162,3.72256,0.786335,3.01174
579.7,6.478,24.1071,3.72177,0.789426,3.02324
581.4,6.478,24.0992,3.7191,0.79251,3.03471
583.1,2.873,10.885,3.7883,0.793881,3.0399
584.8,2.976,11.2755,3.78996,0.795288,3.04523
586.5,2.95,11.1844,3.79073,0.796682,3.05052
588.2,2.898,10.9954,3.79437,0.798085,3.05584
589.9,2.924,11.0964,3.79534,0.7995,3.0612
591.6,3.001,11.3879,3.79495,0.800893,3.06649
593.3,3.053,11.5854,3.79477,0.802291,3.0718
595.0,2.898,11.0102,3.80015,0.803639,3.07692
596.7,3.001,11.3975,3.796,0.805048,3.08227
598.4,2.95,11.2096,3.79941,0.806451,3.0876
600.1,2.821,10.7296,3.80534,0.807823,3.09281
601.8,3.001,11.4049,3.79967,0.809171,3.09794
603.5,2.924,11.119,3.80278,0.810568,3.10325
605.2,2.898,11.0232,3.80344,0.812001,3.1087
606.9,2.924,11.122,3.80176,0.813387,3.11397
608.6,2.95,11.2207,3.80254,0.814809,3.11938
610.3,4.057,15.3396,3.78127,0.816525,3.12588
612.0,4.186,15.8138,3.77857,0.818498,3.13333
613.7,4.16,15.7148,3.7778,0.820476,3.1408
615.4,4.135,15.6195,3.77645,0.822466,3.14832
617.1,4.469,16.8511,3.77119,0.824462,3.15585
618.8,4.418,16.6594,3.77149,0.826556,3.16375
620.5,4.238,15.9921,3.77372,0.828605,3.17148
622.2,4.16,15.7019,3.77366,0.830614,3.17906
623.9,4.109,15.5117,3.77515,0.832604,3.18657
625.6,4.289,16.1748,3.7704,0.834629,3.1942
627.3,4.16,15.6966,3.77407,0.836629,3.20175
629.0,4.469,16.8356,3.76864,0.838606,3.20921
630.7,4.135,15.6009,3.77195,0.840646,3.2169
632.4,4.263,16.072,3.76924,0.842645,3.22443
634.1,4.263,16.0703,3.76976,0.844665,3.23205
635.8,2.898,11.0064,3.79761,0.846158,3.23771
637.5,2.976,11.2998,3.79659,0.847612,3.24322
639.2,3.156,11.984,3.79655,0.849039,3.24864
640.9,2.821,10.7248,3.80303,0.850443,3.25398
642.6,2.976,11.3059,3.79934,0.851834,3.25926
644.3,2.95,11.2103,3.80098,0.853233,3.26458
646.0,2.847,10.8263,3.80302,0.854662,3.27001
647.7,5.989,22.414,3.74132,0.857148,3.27933
649.4,6.092,22.7726,3.73974,0.860001,3.29
651.1,5.989,22.3825,3.73498,0.862858,3.30068
652.8,6.118,22.8386,3.73364,0.865694,3.31127
654.5,5.886,21.9825,3.73589,0.868508,3.32178
656.2,6.015,22.4415,3.72967,0.871284,3.33215
657.9,5.912,22.057,3.7328,0.874074,3.34256
659.6,6.015,22.4213,3.72775,0.876893,3.35307
661.3,5.886,21.9435,3.72769,0.879708,3.36356
663.0,5.834,21.746,3.72614,0.882501,3.37397
664.7,3.388,12.7767,3.77257,0.88508,3.3836
666.4,3.671,13.8283,3.76521,0.886752,3.38989
668.1,3.491,13.1666,3.76979,0.888411,3.39615
669.8,8.641,31.8614,3.68826,0.890628,3.40443
671.5,8.616,31.7268,3.68195,0.894643,3.41923
673.2,8.461,31.1332,3.67819,0.89871,3.4342
674.9,8.744,32.1021,3.67087,0.902777,3.44914
676.6,8.41,30.8814,3.67275,0.906838,3.46405
678.3,5.963,22.1106,3.70519,0.909872,3.47528
680.0,6.092,22.5727,3.70358,0.912745,3.48592
681.7,6.066,22.4752,3.70421,0.915594,3.49648
683.4,6.015,22.2868,3.70326,0.918455,3.50708
685.1,6.066,22.4664,3.70244,0.921277,3.51754
686.8,6.169,22.8318,3.7037,0.924167,3.52824
688.5,6.015,22.2715,3.70109,0.927023,3.53881
690.2,6.143,22.7272,3.69835,0.929899,3.54945
691.9,5.783,21.4243,3.70479,0.932742,3.55998
693.6,6.04,22.346,3.69919,0.935591,3.57052
695.3,3.104,11.6597,3.7565,0.937273,3.57681
697.0,2.95,11.0986,3.76298,0.938663,3.58204
698.7,2.898,10.9122,3.7642,0.94007,3.58733
700.4,2.95,11.1107,3.76654,0.941388,3.5923
702.1,2.821,10.6376,3.77218,0.942728,3.59735
703.8,2.976,11.2164,3.76886,0.944081,3.60245
705.5,4.65,17.3692,3.73564,0.946198,3.61037
707.2,4.727,17.6468,3.73233,0.948397,3.61858
708.9,4.598,17.1729,3.73493,0.950593,3.62678
710.6,4.65,17.3601,3.73296,0.952807,3.63504
712.3,4.624,17.2629,3.73206,0.95501,3.64327
714.0,4.444,16.6037,3.73516,0.957199,3.65144
715.7,4.753,17.7295,3.73189,0.959359,3.6595
717.4,4.804,17.9134,3.72833,0.961586,3.66781
719.1,6.555,24.2463,3.69907,0.963902,3.67644
720.8,6.452,23.8567,3.69794,0.967029,3.688
722.5,6.581,24.3044,3.69357,0.97014,3.69949
724.2,6.761,24.9331,3.68859,0.973298,3.71114
725.9,6.504,23.9967,3.68863,0.976431,3.7227
727.6,6.633,24.4463,3.68408,0.979548,3.73419
729.3,5.577,20.641,3.70117,0.982552,3.74527
731.0,5.654,20.9151,3.69982,0.985235,3.7552
732.7,5.809,21.4693,3.69549,0.987928,3.76516
734.4,5.603,20.7234,3.69884,0.990568,3.77492
736.1,5.706,21.0911,3.69855,0.993219,3.78472
737.8,5.603,20.716,3.69892,0.995877,3.79455
739.5,5.654,20.8956,3.69611,0.998546,3.80441
741.2,5.628,20.7979,3.69614,1.00118,3.81416
742.9,8.307,30.3414,3.65285,1.00419,3.82523
744.6,8.513,31.0295,3.64529,1.0082,3.83985
746.3,8.513,30.9948,3.64233,1.01218,3.85436
748.0,3.645,13.561,3.71979,1.01539,3.8661
749.7,3.722,13.8526,3.72161,1.0171,3.87247
751.4,3.671,13.6747,3.72373,1.01882,3.87885
753.1,3.774,14.0573,3.72275,1.02056,3.88533
754.8,3.542,13.215,3.73009,1.02229,3.89178
756.5,3.774,14.0674,3.72694,1.02406,3.89837
758.2,3.645,13.5996,3.7308,1.02582,3.90495
759.9,3.774,14.0746,3.72753,1.02757,3.91149
761.6,3.671,13.7009,3.73208,1.02932,3.918
763.3,3.671,13.7035,3.73257,1.03106,3.92452
765.0,3.619,13.5151,3.7346,1.03283,3.9311
766.7,3.697,13.8028,3.73416,1.03456,3.93757
768.4,3.465,12.955,3.73937,1.03626,3.94392
770.1,3.619,13.5209,3.73488,1.038,3.95042
771.8,3.594,13.4308,3.73517,1.03972,3.95686
773.5,10.238,37.1397,3.62623,1.04351,3.97067
775.2,10.393,37.5963,3.61724,1.0484,3.98838
776.9,10.341,37.3399,3.61069,1.05327,4.00599
778.6,4.701,17.3707,3.69519,1.05627,4.01694
780.3,4.65,17.1926,3.69719,1.05847,4.02508
782.0,4.701,17.3813,3.69609,1.06066,4.03316
783.7,4.675,17.2903,3.69949,1.06283,4.0412
785.4,4.624,17.1076,3.70052,1.06505,4.04941
787.1,4.701,17.387,3.69765,1.06727,4.0576
788.8,4.701,17.3877,3.70044,1.06946,4.06572
790.5,4.521,16.7376,3.70134,1.07165,4.07381
792.2,4.701,17.3886,3.70148,1.07384,4.08191
793.9,4.572,16.9227,3.70101,1.07599,4.08989
795.6,4.701,17.389,3.69941,1.07816,4.09792
797.3,4.624,17.1097,3.70007,1.08039,4.10615
799.0,6.787,24.8543,3.66314,1.08318,4.11641
800.7,6.633,24.2888,3.66039,1.08629,4.12782
802.4,6.581,24.0874,3.66095,1.08944,4.13932
804.1,6.375,23.3412,3.66233,1.09252,4.15061
805.8,6.555,23.9687,3.65734,1.09561,4.1619
807.5,6.581,24.0494,3.6537,1.09868,4.17314
809.2,6.607,24.1288,3.65267,1.10181,4.18458
810.9,6.349,23.202,3.65469,1.10484,4.19564
812.6,3.053,11.3443,3.71518,1.10727,4.20454
814.3,3.053,11.354,3.71959,1.10868,4.2098
816.0,2.924,10.8899,3.72346,1.11009,4.21503
817.7,3.053,11.3684,3.72335,1.1115,4.22029
819.4,3.182,11.8457,3.72266,1.11293,4.22563
821.1,3.13,11.6606,3.72474,1.11434,4.23089
822.8,3.027,11.2878,3.7288,1.11577,4.2362
824.5,2.976,11.1046,3.73132,1.11719,4.24149
826.2,2.95,11.0126,3.73284,1.11859,4.24672
827.9,2.692,10.0678,3.73909,1.11995,4.25181
829.6,2.898,10.828,3.73481,1.12134,4.25699
831.3,2.95,11.0217,3.73556,1.12271,4.26212
833.0,2.95,11.0238,3.73757,1.12412,4.26738
834.7,2.873,10.743,3.73943,1.12551,4.27258
836.4,3.053,11.4064,3.73416,1.12689,4.27774
838.1,3.053,11.4079,3.73726,1.12832,4.28307
839.8,2.615,9.79815,3.74719,1.12967,4.28815
841.5,4.186,15.5442,3.71406,1.13165,4.29549
843.2,4.315,16.0088,3.70838,1.13364,4.30289
844.9,4.289,15.9104,3.70978,1.13566,4.31039
846.6,4.341,16.0959,3.70833,1.13766,4.31781
848.3,4.289,15.904,3.70915,1.13969,4.32532
850.0,4.238,15.7159,3.70978,1.14171,4.33281
851.7,4.289,15.8984,3.70786,1.14372,4.34025
853.4,4.263,15.8014,3.70619,1.14573,4.3477
855.1,4.263,15.7991,3.70639,1.14775,4.35519
856.8,4.315,15.985,3.70317,1.14978,4.36274
858.5,4.289,15.8888,3.70349,1.1518,4.37022
860.2,4.315,15.9803,3.70467,1.15384,4.37777
861.9,4.366,16.1638,3.70308,1.15584,4.38516
863.6,4.263,15.7886,3.7041,1.1578,4.39244
865.3,4.315,15.9748,3.70272,1.15982,4.39991
867.0,3.104,11.5701,3.72793,1.16124,4.4052
868.7,3.104,11.573,3.72811,1.16267,4.41055
870.4,2.976,11.1062,3.73226,1.16409,4.41585
872.1,2.924,10.9179,3.73298,1.16548,4.42102
873.8,3.13,11.6746,3.7312,1.16695,4.42652
875.5,3.053,11.3945,3.73232,1.16833,4.43167
877.2,2.898,10.8272,3.7333,1.16971,4.43683
878.9,5.989,22.0132,3.67593,1.17236,4.44657
880.6,5.86,21.5328,3.673,1.17518,4.45692
882.3,6.04,22.1594,3.66855,1.17801,4.46734
884.0,6.04,22.1448,3.6658,1.18082,4.47763
885.7,6.04,22.1298,3.66342,1.18366,4.48804
887.4,6.04,22.1162,3.66097,1.18652,4.49851
889.1,5.912,21.6476,3.66339,1.18933,4.5088
890.8,5.963,21.8176,3.65932,1.19216,4.51915
892.5,6.066,22.1732,3.65476,1.19499,4.52951
894.2,5.809,21.2475,3.65746,1.19782,4.53985
895.9,3.594,13.288,3.69796,1.20029,4.54891
897.6,3.542,13.1051,3.7002,1.20197,4.55513
899.3,3.413,12.6412,3.70386,1.20364,4.56131
901.0,8.538,30.8875,3.62025,1.20616,4.57049
902.7,8.59,31.0175,3.61247,1.21022,4.58519
904.4,8.564,30.882,3.60624,1.21427,4.59979
906.1,8.538,30.7507,3.59965,1.21828,4.61423
907.8,8.693,31.2518,3.59584,1.22231,4.62875
909.5,6.04,21.9487,3.63291,1.22524,4.6394
911.2,5.989,21.7649,3.63455,1.22809,4.64974
912.9,5.989,21.7606,3.63409,1.23092,4.66003
914.6,5.989,21.7552,3.6323,1.2338,4.67047
916.3,6.118,22.2051,3.63,1.23667,4.68091
918.0,6.221,22.5624,3.6258,1.23955,4.69136
919.7,6.066,22.0088,3.62829,1.24244,4.70185
921.4,6.169,22.3667,3.62416,1.24529,4.71218
923.1,6.04,21.9057,3.62671,1.24814,4.72253
924.8,5.989,21.7203,3.62712,1.25096,4.73276
926.5,0.117,0.440111,3.76244,1.25119,4.73358
928.2,0.04,0.150821,3.77052,1.25121,4.73365
929.9,0.143,0.539581,3.77295,1.25125,4.73382
931.6,2.873,10.6554,3.70897,1.25143,4.73449
933.3,2.924,10.8422,3.70643,1.25281,4.73959
935.0,2.847,10.5632,3.71082,1.25415,4.74457
936.7,4.598,16.9015,3.67546,1.25565,4.75013
938.4,4.778,17.5391,3.67148,1.25784,4.75817
940.1,4.521,16.6101,3.67226,1.26002,4.76617
941.8,4.598,16.881,3.67125,1.26219,4.77415
943.5,4.341,15.952,3.67504,1.26441,4.78228
945.2,4.65,17.0574,3.66906,1.26657,4.79023
946.9,4.727,17.3289,3.66678,1.26878,4.79832
948.6,4.727,17.3248,3.66651,1.27096,4.80631
950.3,4.65,17.0454,3.66691,1.27313,4.81428
952.0,6.555,23.8094,3.63232,1.27563,4.8234
953.7,6.736,24.4244,3.62503,1.27879,4.83486
955.4,6.581,23.8578,3.62713,1.28191,4.8462
957.1,6.761,24.4726,3.61891,1.28506,4.85758
958.8,6.658,24.0923,3.61806,1.28822,4.86904
960.5,6.581,23.8053,3.61639,1.29135,4.88037
962.2,5.654,20.528,3.63184,1.29423,4.8908
963.9,5.628,20.4311,3.63033,1.29691,4.90053
965.6,5.603,20.3374,3.62993,1.2996,4.91027
967.3,5.551,20.1484,3.62934,1.30227,4.91996
969.0,5.783,20.9616,3.62425,1.305,4.92988
970.7,5.577,20.2289,3.62526,1.30768,4.93959
972.4,5.551,20.1322,3.6271,1.31036,4.94929
974.1,5.809,21.0382,3.62344,1.31299,4.95884
975.8,8.435,30.1911,3.57923,1.31635,4.97091
977.5,8.461,30.2395,3.57476,1.32037,4.9853
979.2,8.332,29.7581,3.57113,1.32437,4.99959
980.9,3.542,12.9315,3.64935,1.32702,5.00912
982.6,3.697,13.4965,3.65004,1.32877,5.0155
984.3,3.619,13.2257,3.65463,1.33048,5.02174
986.0,3.542,12.9564,3.65795,1.33218,5.02796
987.7,3.594,13.1487,3.65715,1.33389,5.03421
989.4,3.697,13.5221,3.65616,1.33565,5.04063
991.1,3.671,13.4332,3.65758,1.33739,5.04702
992.8,3.697,13.5303,3.65896,1.3391,5.05328
994.5,3.619,13.2534,3.66278,1.34082,5.05957
996.2,3.568,13.073,3.66585,1.34255,5.06589
997.9,3.619,13.2584,3.66071,1.34427,5.07221
999.6,3.671,13.4469,3.6621,1.34603,5.07865
1001.3,3.491,12.8018,3.66706,1.34776,5.085
1003.0,3.568,13.0802,3.66522,1.34949,5.09134
1004.7,3.671,13.452,3.66522,1.3512,5.09759
1006.4,10.418,37.02,3.55385,1.35574,5.11378
1008.1,10.496,37.2005,3.54285,1.36064,5.13116
1009.8,10.444,36.9456,3.53825,1.36555,5.14855
1011.5,4.856,17.5794,3.62019,1.36795,5.15723
1013.2,4.65,16.856,3.62533,1.37018,5.16528
1014.9,4.572,16.5834,3.62608,1.37239,5.17329
1016.6,4.598,16.6778,3.62923,1.37462,5.1814
1018.3,4.521,16.4075,3.62921,1.37677,5.1892
1020.0,4.572,16.5899,3.62752,1.37894,5.19707
1021.7,4.572,16.5909,3.6287,1.38114,5.20505
1023.4,4.65,16.8679,3.62671,1.38334,5.21302
1025.1,4.727,17.1409,3.62564,1.38554,5.221
1026.8,4.804,17.4132,3.6252,1.38775,5.22904
1028.5,4.675,16.9563,3.62773,1.38995,5.23699
1030.2,6.53,23.4804,3.59601,1.3923,5.24551
1031.9,6.427,23.1039,3.59481,1.39534,5.25643
1033.6,6.581,23.6255,3.58988,1.39842,5.26751
1035.3,6.633,23.7917,3.58462,1.40154,5.2787
1037.0,6.684,23.9553,3.58274,1.40466,5.2899
1038.7,6.581,23.5839,3.58227,1.40775,5.30098
1040.4,6.581,23.5731,3.58399,1.41083,5.31201
1042.1,6.684,23.9197,3.5776,1.41391,5.32304
1043.8,6.581,23.5508,3.57825,1.41701,5.33413
1045.5,2.873,10.4783,3.64755,1.41898,5.34125
1047.2,2.898,10.5768,3.65009,1.42038,5.34634
1048.9,2.847,10.4009,3.65263,1.42176,5.3514
1050.6,2.924,10.6839,3.65417,1.42318,5.35657
1052.3,3.053,11.1527,3.65144,1.42459,5.36172
1054.0,3.027,11.0646,3.65668,1.42597,5.36677
1055.7,2.873,10.5154,3.6604,1.42737,5.3719
1057.4,2.873,10.5195,3.66244,1.42874,5.37692
1059.1,3.104,11.354,3.65855,1.43012,5.38195
1060.8,3.079,11.2673,3.65704,1.43154,5.38714
1062.5,3.027,11.0836,3.66112,1.43291,5.39217
1064.2,2.795,10.2507,3.66693,1.43426,5.39713
1065.9,2.976,10.9054,3.66413,1.43566,5.40226
1067.6,3.182,11.6487,3.66081,1.43707,5.40744
1069.3,2.898,10.6282,3.66683,1.43848,5.41259
1071.0,3.001,11.0012,3.66559,1.43989,5.41776
1072.7,4.289,15.6154,3.64157,1.44142,5.42334
1074.4,4.135,15.0622,3.64357,1.44337,5.43046
1076.1,4.109,14.9657,3.64216,1.44537,5.43773
1077.8,4.366,15.8776,3.63705,1.44735,5.44495
1079.5,4.16,15.1411,3.64008,1.44933,5.45216
1081.2,4.469,16.2368,3.63385,1.4514,5.45967
1082.9,4.366,15.8672,3.63642,1.45345,5.46714
1084.6,4.341,15.7757,3.63266,1.45549,5.47453
1086.3,4.238,15.4071,3.63596,1.4575,5.48184
1088.0,4.366,15.8604,3.63273,1.45949,5.48907
1089.7,4.212,15.3104,3.63348,1.46151,5.49644
1091.4,4.238,15.4015,3.63471,1.46348,5.50359
1093.1,4.289,15.5802,3.63135,1.46552,5.51102
1094.8,4.238,15.3972,3.63459,1.46752,5.51825
1096.5,4.212,15.3026,3.63258,1.46954,5.52561
1098.2,2.847,10.4219,3.66187,1.47126,5.53186
1099.9,3.156,11.5361,3.65606,1.47267,5.53703
1101.6,3.001,10.982,3.66039,1.47411,5.54228
1103.3,3.027,11.0778,3.65999,1.47555,5.54755
1105.0,3.001,10.9869,3.66041,1.47692,5.55256
1106.7,3.001,10.9888,3.66144,1.47832,5.5577
1108.4,2.976,10.9005,3.6621,1.47973,5.56288
1110.1,5.989,21.6029,3.60631,1.48173,5.57013
1111.8,5.963,21.4918,3.60516,1.48457,5.58037
1113.5,6.04,21.7436,3.60049,1.48743,5.59069
1115.2,5.912,21.2798,3.5981,1.49027,5.60087
1116.9,5.86,21.0835,3.59836,1.49309,5.61104
1118.6,5.86,21.0717,3.59598,1.49588,5.62105
1120.3,6.015,21.6027,3.59175,1.49867,5.63108
1122.0,5.989,21.501,3.5887,1.50147,5.64116
1123.7,5.989,21.4898,3.58896,1.5043,5.65131
1125.4,5.937,21.2987,3.58656,1.50711,5.66137
1127.1,5.783,20.7514,3.58769,1.5099,5.67139
1128.8,3.413,12.396,3.63313,1.51173,5.67801
1130.5,3.516,12.7676,3.63241,1.51341,5.68411
1132.2,3.465,12.5899,3.63345,1.51506,5.6901
1133.9,8.41,29.8446,3.54914,1.5188,5.7034
1135.6,8.59,30.4177,3.54121,1.52287,5.71782
1137.3,8.538,30.2003,3.53696,1.52691,5.73211
1139.0,8.513,30.0787,3.53287,1.531,5.74659
1140.7,5.963,21.2784,3.56726,1.53446,5.75884
1142.4,6.066,21.6332,3.56653,1.5373,5.76896
1144.1,5.886,21.0045,3.56734,1.54018,5.77924
1145.8,6.118,21.8058,3.56415,1.54303,5.78941
1147.5,5.937,21.1737,3.56717,1.54586,5.7995
1149.2,6.118,21.797,3.56251,1.54872,5.8097
1150.9,5.937,21.1642,3.56587,1.55159,5.81993
1152.6,6.246,22.2305,3.5596,1.55445,5.83009
1154.3,6.092,21.6914,3.55951,1.55735,5.84043
1156.0,6.066,21.5979,3.56122,1.56016,5.85045
1157.7,3.001,10.8546,3.61738,1.56234,5.85824
1159.4,2.95,10.6816,3.62076,1.56376,5.86337
1161.1,2.873,10.4143,3.6228,1.56517,5.86848
1162.8,2.641,9.59264,3.63184,1.56649,5.87326
1164.5,2.692,9.77993,3.63162,1.56785,5.87821
1166.2,2.898,10.5208,3.62989,1.56917,5.883
1167.9,4.65,16.7246,3.598,1.57103,5.88971
1169.6,4.65,16.7215,3.59676,1.5732,5.8975
1171.3,4.675,16.8063,3.59542,1.57541,5.90544
1173.0,4.65,16.7158,3.59496,1.57761,5.91337
1174.7,4.727,16.9839,3.59126,1.57981,5.92129
1176.4,4.778,17.1605,3.59254,1.58204,5.9293
1178.1,4.701,16.8893,3.59338,1.58415,5.93688
1179.8,4.65,16.708,3.59456,1.58637,5.94485
1181.5,4.675,16.7933,3.59304,1.5886,5.95286
1183.2,6.607,23.5103,3.55797,1.59153,5.96329
1184.9,6.607,23.4946,3.55501,1.59463,5.97432
1186.6,6.581,23.388,3.55424,1.59777,5.98548
1188.3,6.71,23.8185,3.55046,1.60092,5.99668
1190.0,6.607,23.4507,3.54804,1.60403,6.00771
1191.7,6.581,23.3489,3.5471,1.60715,6.01878
1193.4,5.68,20.229,3.56119,1.60987,6.02847
1195.1,5.68,20.2256,3.56079,1.61255,6.03803
1196.8,5.525,19.6845,3.56209,1.61522,6.04752
1198.5,5.499,19.5907,3.56146,1.61787,6.05697
1200.2,5.551,19.7683,3.56208,1.62053,6.06642
1201.9,5.577,19.8549,3.56032,1.62319,6.07592
1203.6,5.551,19.7617,3.55887,1.62583,6.0853
1205.3,5.577,19.8488,3.55953,1.62846,6.09467
1207.0,8.564,30.068,3.51035,1.63235,6.10836
1208.7,8.41,29.5126,3.50847,1.63635,6.12237
1210.4,8.461,29.6568,3.50517,1.64035,6.13642
1212.1,3.697,13.2524,3.58499,1.64207,6.14256
1213.8,3.594,12.8984,3.58852,1.64379,6.14873
1215.5,3.645,13.0845,3.58966,1.64552,6.15495
1217.2,3.722,13.3609,3.58955,1.64727,6.16122
1218.9,3.774,13.5489,3.59065,1.64901,6.16748
1220.6,3.645,13.0986,3.59532,1.65079,6.17388
1222.3,3.697,13.2856,3.59333,1.65253,6.18011
1224.0,3.516,12.6503,3.5994,1.6543,6.18649
1225.7,3.671,13.2,3.59585,1.65603,6.19272
1227.4,3.774,13.5654,3.59426,1.65778,6.19899
1229.1,3.748,13.4762,3.59604,1.65952,6.20525
1230.8,3.568,12.8436,3.60028,1.66126,6.21151
1232.5,3.774,13.5723,3.59522,1.66296,6.21763
1234.2,3.671,13.2107,3.5991,1.6647,6.2239
1235.9,10.496,36.6763,3.4947,1.66739,6.23341
1237.6,10.367,36.1636,3.48756,1.67225,6.25041
1239.3,10.187,35.4903,3.48291,1.67714,6.26742
1241.0,4.624,16.4726,3.56178,1.68108,6.2812
1242.7,4.701,16.746,3.56263,1.68328,6.28904
1244.4,4.624,16.4824,3.56488,1.68547,6.29686
1246.1,4.495,16.0361,3.56757,1.68765,6.30462
1247.8,4.753,16.9369,3.56197,1.68986,6.31249
1249.5,4.727,16.8482,3.5663,1.69206,6.32035
1251.2,4.521,16.1318,3.56786,1.69427,6.32822
1252.9,4.753,16.941,3.56523,1.69648,6.33611
1254.6,4.727,16.8516,3.56406,1.69863,6.34378
1256.3,4.547,16.2248,3.56828,1.70081,6.35156
1258.0,4.598,16.4034,3.56684,1.70297,6.35926
1259.7,4.753,16.943,3.56436,1.70519,6.36718
1261.4,6.581,23.2593,3.53276,1.70766,6.37597
1263.1,6.452,22.801,3.53547,1.71078,6.38698
1264.8,6.71,23.6728,3.52758,1.71392,6.39804
1266.5,6.427,22.6904,3.52951,1.71703,6.40904
1268.2,6.607,23.2977,3.52611,1.72009,6.41983
1269.9,6.581,23.199,3.52478,1.72317,6.43071
1271.6,6.607,23.2781,3.52303,1.72629,6.44169
1273.3,6.504,22.9174,3.52235,1.72936,6.4525
1275.0,3.13,11.2124,3.58318,1.73233,6.46298
1276.7,3.001,10.7668,3.58825,1.73376,6.46809
1278.4,2.898,10.4099,3.59212,1.73518,6.4732
1280.1,3.027,10.8715,3.59055,1.73657,6.4782
1281.8,2.976,10.6967,3.59324,1.73799,6.48329
1283.5,2.898,10.4253,3.59614,1.73943,6.48847
1285.2,2.976,10.7052,3.59659,1.74085,6.49356
1286.9,2.976,10.7088,3.59629,1.74227,6.49868
1288.6,2.976,10.7121,3.59772,1.74368,6.50374
1290.3,2.976,10.7152,3.60095,1.74507,6.50877
1292.0,2.873,10.3535,3.60465,1.74644,6.51369
1293.7,2.924,10.537,3.60352,1.7478,6.5186
1295.4,2.847,10.2663,3.60527,1.7492,6.52366
1297.1,2.95,10.6336,3.60488,1.7506,6.5287
1298.8,2.821,10.1784,3.60783,1.75197,6.53362
1300.5,3.053,11.0023,3.60277,1.75339,6.53874
1302.2,2.847,10.2738,3.61023,1.75481,6.54385
1303.9,4.341,15.5371,3.57967,1.75653,6.55003
1305.6,4.186,14.9907,3.58061,1.75852,6.55716
1307.3,4.186,14.9876,3.58138,1.76053,6.56437
1309.0,4.083,14.6238,3.58103,1.76255,6.57159
1310.7,4.16,14.8915,3.57919,1.76456,6.57879
1312.4,4.289,15.3409,3.57545,1.76657,6.58599
1314.1,4.263,15.2479,3.57706,1.76858,6.59318
1315.8,4.289,15.337,3.57684,1.7706,6.60038
1317.5,4.238,15.1566,3.57635,1.77262,6.60761
1319.2,4.212,15.0639,3.57636,1.77465,6.61487
1320.9,4.212,15.0623,3.57622,1.77669,6.62215
1322.6,4.263,15.239,3.57338,1.77871,6.62937
1324.3,4.083,14.608,3.57973,1.7807,6.63649
1326.0,4.289,15.3282,3.57209,1.78267,6.64354
1327.7,4.289,15.3263,3.57404,1.78468,6.65073
1329.4,2.924,10.5285,3.60134,1.78634,6.65668
1331.1,2.924,10.5312,3.60203,1.78775,6.66176
1332.8,2.873,10.3529,3.60417,1.78918,6.6669
1334.5,2.873,10.355,3.60354,1.79058,6.67193
1336.2,3.079,11.086,3.60171,1.79201,6.67711
1337.9,2.821,10.1739,3.60525,1.79341,6.68215
1339.6,2.821,10.1757,3.60728,1.79482,6.68721
1341.3,5.912,20.9846,3.54959,1.79694,6.69479
1343.0,6.04,21.411,3.54566,1.79976,6.70479
1344.7,6.118,21.6655,3.54357,1.80258,6.71479
1346.4,6.092,21.5631,3.53949,1.80543,6.72486
1348.1,5.86,20.7518,3.54211,1.80825,6.73485
1349.8,5.989,21.1856,3.53778,1.81109,6.74491
1351.5,5.963,21.0867,3.53527,1.81392,6.7549
1353.2,6.118,21.6103,3.53226,1.81674,6.76486
1354.9,5.912,20.8931,3.53354,1.81957,6.77488
1356.6,6.04,21.325,3.53147,1.82241,6.78492
1358.3,6.092,21.4963,3.52838,1.8252,6.79477
1360.0,3.594,12.8431,3.57439,1.82696,6.80104
1361.7,3.594,12.8472,3.57345,1.82864,6.80707
1363.4,3.465,12.3982,3.57784,1.8303,6.813
1365.1,8.693,30.337,3.48904,1.83436,6.82719
1366.8,8.564,29.8658,3.48766,1.83842,6.84135
1368.5,8.487,29.5759,3.48473,1.84244,6.85535
1370.2,8.435,29.3713,3.48233,1.84646,6.86934
1371.9,6.015,21.1498,3.51773,1.8498,6.88103
1373.6,6.066,21.3219,3.51401,1.85266,6.8911
1375.3,6.015,21.1474,3.51657,1.8555,6.90108
1377.0,6.04,21.2269,3.51529,1.85837,6.91116
1378.7,6.118,21.49,3.51225,1.86123,6.92121
1380.4,6.066,21.3082,3.51281,1.8641,6.93129
1382.1,6.015,21.1298,3.51434,1.86702,6.94153
1383.8,6.015,21.1265,3.51154,1.86985,6.95147
1385.5,6.066,21.297,3.51024,1.87271,6.96153
1387.2,5.937,20.8526,3.51219,1.87555,6.97149
1388.9,0.014,0.0509977,3.6424,1.87674,6.97566
1390.6,0.04,0.145884,3.64652,1.87678,6.97582
1392.3,0.04,0.146064,3.65121,1.87681,6.97593
1394.0,0.014,0.0511885,3.65644,1.87685,6.97608
1395.7,2.924,10.4837,3.58756,1.8779,6.97984
1397.4,2.744,9.85048,3.58948,1.87925,6.98469
1399.1,2.924,10.4874,3.58627,1.8806,6.98954
1400.8,4.547,16.1616,3.55434,1.88263,6.99675
1402.5,4.598,16.3336,3.55227,1.88484,7.00459
1404.2,4.469,15.8818,3.5538,1.88701,7.01231
1405.9,4.856,17.2199,3.54902,1.88923,7.02018
1407.6,4.727,16.7701,3.54952,1.89137,7.02779
1409.3,4.675,16.5867,3.54822,1.89357,7.0356
1411.0,4.521,16.0499,3.55016,1.89577,7.04341
1412.7,4.624,16.4049,3.54852,1.89794,7.05109
1414.4,4.598,16.3125,3.548,1.9001,7.05878
1416.1,6.658,23.3799,3.51006,1.90325,7.06983
1417.8,6.555,23.0132,3.51016,1.9064,7.08088
1419.5,6.581,23.0878,3.50916,1.90953,7.09187
1421.2,6.684,23.4259,3.50411,1.91269,7.10295
1422.9,6.504,22.8008,3.50699,1.91581,7.11388
1424.6,5.499,19.358,3.51999,1.91888,7.12465
1426.3,5.783,20.3279,3.51415,1.92155,7.13403
1428.0,5.68,19.9715,3.51394,1.92424,7.14347
1429.7,5.68,19.9684,3.51348,1.92692,7.1529
1431.4,5.809,20.4057,3.51191,1.92961,7.16236
1433.1,5.603,19.6972,3.51692,1.93233,7.17193
1434.8,5.68,19.9573,3.5125,1.93501,7.18134
1436.5,5.551,19.513,3.51605,1.93763,7.19056
1438.2,8.384,29.1074,3.47109,1.94052,7.20069
1439.9,8.513,29.5087,3.4657,1.94452,7.21456
1441.6,8.513,29.4822,3.46458,1.94855,7.22852
1443.3,3.542,12.5475,3.54157,1.95201,7.24053
1445.0,3.826,13.5414,3.53919,1.95372,7.24658
1446.7,3.671,13.0097,3.54414,1.95545,7.25272
1448.4,3.594,12.7474,3.54752,1.95715,7.25875
1450.1,3.774,13.3778,3.54305,1.95885,7.26478
1451.8,3.8,13.4719,3.54393,1.96061,7.271
1453.5,3.697,13.1176,3.54651,1.96236,7.2772
1455.2,3.542,12.5813,3.55207,1.96407,7.2833
1456.9,3.671,13.033,3.54989,1.96579,7.28941
1458.6,3.645,12.9448,3.55304,1.96752,7.29556
1460.3,3.568,12.6788,3.55419,1.96925,7.30168
1462.0,3.8,13.488,3.54837,1.97098,7.30784
1463.7,3.748,13.3085,3.54987,1.97275,7.3141
1465.4,3.594,12.774,3.55308,1.97446,7.32019
1467.1,3.722,13.2213,3.55126,1.97616,7.32623
1468.8,10.444,36.0053,3.44875,1.97958,7.33813
1470.5,10.367,35.6835,3.44283,1.98449,7.35501
1472.2,10.238,35.1977,3.4376,1.9894,7.37191
1473.9,4.727,16.6281,3.5169,1.99272,7.38344
1475.6,4.624,16.2786,3.51971,1.99498,7.39138
1477.3,4.572,16.103,3.52271,1.9972,7.3992
1479.0,4.701,16.5488,3.52141,1.99942,7.40701
1480.7,4.366,15.398,3.52587,2.00161,7.41471
1482.4,4.675,16.4638,3.52273,2.00375,7.42224
1484.1,4.727,16.6436,3.52085,2.00595,7.42999
1485.8,4.675,16.4656,3.52257,2.00814,7.43773
1487.5,4.547,16.0254,3.52434,2.01035,7.4455
1489.2,4.701,16.5559,3.52085,2.01254,7.45321
1490.9,4.65,16.3806,3.52307,2.01476,7.46103
1492.6,4.624,16.2911,3.52253,2.01695,7.46875
1494.3,6.401,22.3531,3.49094,2.01985,7.47887
1496.0,6.633,23.1287,3.48732,2.0229,7.48953
1497.7,6.504,22.6805,3.4863,2.02602,7.50042
1499.4,6.71,23.3674,3.48383,2.02916,7.51137
1501.1,6.452,22.4856,3.48459,2.03225,7.52211
1502.8,6.555,22.8261,3.48433,2.03532,7.5328
1504.5,6.504,22.6463,3.4821,2.0384,7.54352
1506.2,6.555,22.8107,3.47947,2.04149,7.5543
1507.9,2.873,10.189,3.54669,2.04407,7.5633
1509.6,3.13,11.0909,3.54433,2.04546,7.56821
1511.3,3.001,10.6478,3.54701,2.04687,7.57321
1513.0,3.079,10.9249,3.54639,2.04826,7.57815
1514.7,3.053,10.8387,3.55051,2.04966,7.58314
1516.4,2.976,10.5741,3.55466,2.05107,7.58816
1518.1,2.95,10.4868,3.55661,2.05247,7.59311
1519.8,2.795,9.94813,3.56046,2.05385,7.59801
1521.5,2.924,10.4024,3.55973,2.0552,7.60284
1523.2,2.873,10.2263,3.55886,2.05662,7.60786
1524.9,2.744,9.77709,3.56325,2.05799,7.61276
1526.6,2.821,10.0489,3.56289,2.05938,7.61768
1528.3,2.976,10.5933,3.55958,2.06075,7.62257
1530.0,3.053,10.8644,3.55705,2.06214,7.62753
1531.7,3.001,10.6841,3.55931,2.06357,7.63263
1533.4,3.053,10.8677,3.55959,2.06497,7.63761
1535.1,3.053,10.869,3.56063,2.06639,7.64264
1536.8,4.16,14.7171,3.538,2.06826,7.64929
1538.5,4.289,15.1606,3.53389,2.07024,7.6563
1540.2,4.16,14.7124,3.53841,2.07222,7.66327
1541.9,4.16,14.7103,3.5369,2.0742,7.6703
1543.6,4.392,15.5097,3.53007,2.07624,7.67749
1545.3,4.238,14.9755,3.53534,2.07831,7.68481
1547.0,4.238,14.9736,3.53297,2.08035,7.69202
1548.7,4.315,15.2381,3.53075,2.08237,7.69913
1550.4,4.263,15.0575,3.53356,2.08436,7.70616
1552.1,4.289,15.1455,3.53095,2.08639,7.71333
1553.8,4.083,14.4328,3.53509,2.08836,7.7203
1555.5,4.341,15.3225,3.52916,2.09038,7.72745
1557.2,4.238,14.9659,3.5329,2.09239,7.73453
1558.9,4.366,15.4065,3.52894,2.09441,7.74167
1560.6,3.027,10.7605,3.55509,2.09635,7.74852
1562.3,2.976,10.5853,3.55805,2.09773,7.75343
1564.0,3.001,10.6748,3.55473,2.09919,7.75861
1565.7,3.001,10.6766,3.55678,2.10063,7.76372
1567.4,2.898,10.3184,3.5613,2.10201,7.76864
1569.1,2.924,10.411,3.56056,2.10341,7.77362
1570.8,3.053,10.8634,3.55741,2.10481,7.77864
1572.5,6.04,21.1678,3.50492,2.10631,7.78394
1574.2,6.092,21.3293,3.50345,2.10915,7.7939
1575.9,6.015,21.0536,3.5009,2.112,7.80387
1577.6,6.015,21.0418,3.49792,2.11485,7.81386
1579.3,6.015,21.0311,3.49535,2.11769,7.82379
1581.0,5.809,20.3208,3.49698,2.12048,7.83355
1582.7,5.757,20.1362,3.49859,2.12326,7.84325
1584.4,5.937,20.7401,3.49405,2.12606,7.85304
1586.1,5.963,20.8208,3.49219,2.12889,7.86291
1587.8,5.963,20.8136,3.491,2.1317,7.87272
1589.5,6.092,21.2451,3.48603,2.13448,7.88244
1591.2,3.594,12.6926,3.5313,2.13673,7.89032
1592.9,3.619,12.783,3.53265,2.13842,7.89628
1594.6,3.491,12.3431,3.53604,2.14006,7.90208
1596.3,8.513,29.3875,3.4528,2.14297,7.91222
1598.0,8.719,30.0392,3.44614,2.147,7.92612
1599.7,8.616,29.664,3.44366,2.15106,7.94009
1601.4,8.873,30.4877,3.4346,2.15517,7.95423
1603.1,6.066,21.0766,3.47439,2.15904,7.96754
1604.8,6.015,20.9034,3.47684,2.16187,7.97738
1606.5,6.118,21.2486,3.47265,2.16475,7.9874
1608.2,6.04,20.9824,3.4738,2.1676,7.99728
1609.9,5.86,20.37,3.4753,2.17043,8.00713
1611.6,6.118,21.2393,3.47168,2.17328,8.01704
1613.3,6.118,21.2352,3.4712,2.17618,8.02709
1615.0,5.963,20.7087,3.47315,2.17902,8.03695
1616.7,6.143,21.3118,3.47016,2.18191,8.04699
1618.4,6.015,20.877,3.47042,2.18474,8.0568
1620.1,3.001,10.5826,3.52543,2.18742,8.06612
1621.8,2.95,10.4127,3.52893,2.18885,8.07115
1623.5,3.156,11.1324,3.52521,2.19024,8.07607
1625.2,2.744,9.708,3.53794,2.19162,8.08094
1626.9,2.847,10.0703,3.53805,2.19295,8.08563
1628.6,2.77,9.80677,3.5404,2.19428,8.09035
1630.3,4.624,16.2046,3.50346,2.19584,8.09585
1632.0,4.624,16.2022,3.50373,2.198,8.10344
1633.7,4.65,16.2891,3.50401,2.20021,8.11116
1635.4,4.675,16.3726,3.50191,2.2024,8.11885
1637.1,4.65,16.2856,3.50322,2.20461,8.12659
1638.8,4.753,16.6359,3.50081,2.20683,8.13434
1640.5,4.444,15.5784,3.50475,2.20898,8.14188
1642.2,4.675,16.3672,3.5015,2.21117,8.14957
1643.9,4.675,16.3657,3.50189,2.2134,8.15734
1645.6,6.813,23.6028,3.46236,2.21599,8.16637
1647.3,6.633,22.9835,3.46404,2.21911,8.17718
1649.0,6.839,23.6643,3.46143,2.22222,8.18798
1650.7,6.633,22.9591,3.46208,2.22539,8.19893
1652.4,6.684,23.1201,3.45934,2.22852,8.20977
1654.1,6.607,22.8517,3.45966,2.23163,8.22053
1655.8,5.706,19.8133,3.47205,2.2345,8.23049
1657.5,5.706,19.8112,3.4719,2.23718,8.2398
1659.2,5.551,19.2844,3.47348,2.23987,8.24914
1660.9,5.628,19.5421,3.47111,2.24251,8.2583
1662.6,5.68,19.7154,3.47124,2.24517,8.26754
1664.3,5.809,20.1479,3.46801,2.24784,8.2768
1666.0,5.525,19.1863,3.47261,2.25049,8.28599
1667.7,5.525,19.1843,3.47244,2.25312,8.29511
1669.4,8.487,29.0674,3.4259,2.25653,8.30686
1671.1,8.332,28.526,3.42441,2.26053,8.32056
1672.8,8.513,29.0987,3.4177,2.26452,8.33421
1674.5,3.491,12.2272,3.50322,2.26705,8.34296
1676.2,3.568,12.4988,3.50259,2.26877,8.34896
1677.9,3.748,13.1219,3.50125,2.2705,8.35501
1679.6,3.645,12.7737,3.50498,2.27223,8.36109
1681.3,3.748,13.1313,3.50403,2.27396,8.36715
1683.0,3.851,13.4879,3.50202,2.27574,8.37339
1684.7,3.697,12.9629,3.50652,2.27749,8.37952
1686.4,3.748,13.1404,3.50506,2.27925,8.3857
1688.1,3.774,13.2325,3.50961,2.28099,8.3918
1689.8,3.645,12.7917,3.50766,2.28273,8.39791
1691.5,3.619,12.7042,3.50959,2.28449,8.40407
1693.2,3.722,13.06,3.50875,2.28624,8.4102
1694.9,3.645,12.7972,3.51063,2.28793,8.41613
1696.6,3.697,12.9776,3.50844,2.28967,8.42225
1698.3,3.774,13.2435,3.50753,2.2914,8.42834
1700.0,10.418,35.4311,3.40201,2.2961,8.44434
1701.7,10.393,35.2858,3.39569,2.30101,8.46102
1703.4,10.496,35.5668,3.38731,2.30589,8.47759
1705.1,4.624,16.0832,3.47923,2.30808,8.4852
1706.8,4.65,16.1756,3.47803,2.31028,8.49285
1708.5,4.598,16.0019,3.48124,2.31247,8.50046
1710.2,4.727,16.4426,3.47748,2.31465,8.50804
1711.9,4.624,16.0945,3.48004,2.31685,8.51572
1713.6,4.701,16.357,3.48035,2.31908,8.52347
1715.3,4.675,16.2698,3.47964,2.32127,8.5311
1717.0,4.598,16.0094,3.48112,2.32344,8.53865
1718.7,4.521,15.7481,3.48448,2.32564,8.54629
1720.4,4.547,15.8371,3.48358,2.32779,8.55378
1722.1,4.753,16.5369,3.48088,2.32998,8.56142
1723.8,4.701,16.3602,3.47921,2.3322,8.56915
1725.5,6.555,22.5951,3.44606,2.33528,8.57975
1727.2,6.684,23.0146,3.44345,2.33838,8.59044
1728.9,6.633,22.8333,3.44225,2.34152,8.60125
1730.6,6.53,22.4804,3.43976,2.34458,8.61178
1732.3,6.427,22.1277,3.44351,2.34766,8.62241
1734.0,6.71,23.0638,3.43712,2.35076,8.63306
1735.7,6.298,21.6808,3.44312,2.35386,8.64374
1737.4,6.504,22.3613,3.43881,2.3569,8.65419
1739.1,2.898,10.1614,3.50685,2.35884,8.66092
1740.8,3.104,10.8765,3.50535,2.36027,8.66593
1742.5,2.976,10.4418,3.50769,2.36165,8.67078
1744.2,2.95,10.3567,3.51049,2.36308,8.67577
1745.9,2.95,10.3605,3.51033,2.3645,8.68078
1747.6,2.976,10.4538,3.5136,2.36593,8.68579
1749.3,3.053,10.7225,3.51283,2.36735,8.69078
1751.0,2.976,10.4599,3.51464,2.36876,8.69573
1752.7,2.95,10.3729,3.51519,2.37016,8.70065
1754.4,3.001,10.5516,3.51415,2.37153,8.70546
1756.1,2.873,10.1118,3.51897,2.3729,8.71028
1757.8,3.13,11.0012,3.51363,2.3743,8.71522
1759.5,2.976,10.4718,3.51777,2.37569,8.7201
1761.2,2.924,10.2938,3.52058,2.37707,8.72497
1762.9,2.898,10.2055,3.52206,2.37845,8.72983
1764.6,3.001,10.5629,3.52076,2.3799,8.73492
1766.3,4.289,14.987,3.49473,2.38138,8.74014
1768.0,4.238,14.8098,3.49511,2.38339,8.74717
1769.7,4.341,15.1585,3.49334,2.38541,8.7542
1771.4,4.341,15.1566,3.49101,2.38743,8.76126
1773.1,4.392,15.3279,3.49013,2.38943,8.76825
1774.8,4.238,14.8009,3.49333,2.39144,8.77527
1776.5,4.212,14.7103,3.49068,2.39346,8.78232
1778.2,4.212,14.7089,3.49285,2.39547,8.78933
1779.9,4.315,15.0591,3.48978,2.39749,8.79638
1781.6,4.444,15.4966,3.48614,2.39951,8.80344
1783.3,4.444,15.4949,3.48595,2.40156,8.81059
1785.0,4.392,15.3169,3.48636,2.40356,8.81759
1786.7,4.186,14.6132,3.49118,2.40559,8.82466
1788.4,4.135,14.4385,3.49214,2.40757,8.83157
1790.1,4.212,14.7,3.48926,2.40955,8.83849
1791.8,3.001,10.5471,3.51555,2.41143,8.84506
1793.5,3.053,10.7292,3.5141,2.41283,8.84997
1795.2,3.13,10.9968,3.51249,2.41427,8.85502
1796.9,3.027,10.6437,3.51481,2.41567,8.85997
1798.6,3.285,11.5348,3.51093,2.41706,8.86486
1800.3,2.898,10.2011,3.52073,2.41852,8.86999
1802.0,2.95,10.3822,3.51928,2.41991,8.87488
1803.7,5.989,20.7389,3.46381,2.42154,8.88056
1805.4,5.989,20.7257,3.45952,2.42435,8.89032
1807.1,5.963,20.6241,3.45846,2.42716,8.90002
1808.8,5.886,20.3538,3.45809,2.43,8.90984
1810.5,6.118,21.1224,3.45315,2.43282,8.9196
1812.2,6.143,21.1958,3.4505,2.43567,8.92942
1813.9,6.015,20.7578,3.45099,2.43851,8.93925
1815.6,5.937,20.4879,3.45024,2.44131,8.9489
1817.3,6.092,20.9989,3.44535,2.44416,8.95873
1819.0,5.989,20.6461,3.44769,2.44699,8.96849
1820.7,5.783,19.9494,3.45069,2.44978,8.97812
1822.4,3.413,11.9247,3.49397,2.45193,8.98554
1824.1,3.568,12.4588,3.49081,2.45363,8.99149
1825.8,3.619,12.6363,3.49201,2.4553,8.99733
1827.5,8.616,29.3503,3.40487,2.4585,9.0083
1829.2,8.564,29.142,3.40161,2.46258,9.02216
1830.9,8.487,28.8581,3.40048,2.46661,9.03587
1832.6,8.538,28.9965,3.39783,2.47062,9.04951
1834.3,5.989,20.5589,3.43262,2.47438,9.06229
1836.0,5.989,20.5568,3.43255,2.47724,9.07212
1837.7,5.989,20.5551,3.43158,2.48008,9.08186
1839.4,6.066,20.8076,3.42829,2.48292,9.09161
1841.1,6.092,20.8915,3.43148,2.48579,9.10146
1842.8,6.04,20.7144,3.42888,2.48867,9.11132
1844.5,6.195,21.2253,3.42515,2.49158,9.12127
1846.2,5.886,20.1934,3.43136,2.49443,9.13107
1847.9,6.04,20.7026,3.4276,2.49729,9.14086
1849.6,5.963,20.4422,3.42849,2.50014,9.15063
1851.3,0.169,0.60127,3.55699,2.50231,9.15807
1851.9,0.014,0.0498976,3.56579,2.50232,9.1581