File: output/use_case_2_5.0E.csv
Time [s],Current [A],Power [W],Voltage [V],Capacity [Ah],Energy [Wh]
0.0,0.0,0.0,4.09766,0.0,0.0
0.06,0.0,0.0,4.09604,0.0,0.0
0.12,0.0,0.0,4.09698,0.0,0.0
0.24,0.0,0.0,4.0961,0.0,0.0
0.48,0.0,0.0,4.09482,0.0,0.0
0.96,0.0,0.0,4.09656,0.0,0.0
1.92,0.0,0.0,4.09577,0.0,0.0
2.92,0.0,0.0,4.09619,0.0,0.0
3.92,0.0,0.0,4.09664,0.0,0.0
4.92,0.0,0.0,4.09513,0.0,0.0
5.92,0.0,0.0,4.09744,0.0,0.0
6.92,0.0,0.0,4.09608,0.0,0.0
7.92,0.0,0.0,4.09746,0.0,0.0
8.92,0.0,0.0,4.09607,0.0,0.0
9.92,0.0,0.0,4.0966,0.0,0.0
10.92,0.0,0.0,4.09557,0.0,0.0
11.92,0.0,0.0,4.0971,0.0,0.0
12.92,0.0,0.0,4.09622,0.0,0.0
13.92,0.0,0.0,4.09662,0.0,0.0
14.92,0.0,0.0,4.0971,0.0,0.0
15.92,0.0,0.0,4.09831,0.0,0.0
16.92,0.0,0.0,4.09558,0.0,0.0
17.92,0.0,0.0,4.09704,0.0,0.0
18.92,0.0,0.0,4.09635,0.0,0.0
19.92,0.0,0.0,4.09584,0.0,0.0
20.92,0.0,0.0,4.09651,0.0,0.0
21.92,0.0,0.0,4.09642,0.0,0.0
22.92,0.0,0.0,4.09734,0.0,0.0
23.92,0.0,0.0,4.09575,0.0,0.0
24.92,0.0,0.0,4.096,0.0,0.0
25.92,0.0,0.0,4.09707,0.0,0.0
26.92,0.0,0.0,4.09739,0.0,0.0
27.92,0.0,0.0,4.09716,0.0,0.0
28.92,0.0,0.0,4.09824,0.0,0.0
29.92,0.0,0.0,4.09447,0.0,0.0
30.92,0.0,0.0,4.09821,0.0,0.0
31.92,0.0,0.0,4.09694,0.0,0.0
32.92,0.0,0.0,4.09636,0.0,0.0
33.92,0.0,0.0,4.09513,0.0,0.0
34.92,0.0,0.0,4.09666,0.0,0.0
35.92,0.0,0.0,4.09795,0.0,0.0
36.92,0.0,0.0,4.09646,0.0,0.0
37.92,0.0,0.0,4.09616,0.0,0.0
38.92,0.0,0.0,4.09665,0.0,0.0
39.92,0.0,0.0,4.09715,0.0,0.0
40.92,0.0,0.0,4.09713,0.0,0.0
41.92,0.0,0.0,4.09684,0.0,0.0
42.92,0.0,0.0,4.09549,0.0,0.0
43.92,0.0,0.0,4.09789,0.0,0.0
44.92,0.0,0.0,4.09771,0.0,0.0
45.92,0.0,0.0,4.09674,0.0,0.0
46.92,0.0,0.0,4.09449,0.0,0.0
47.92,0.0,0.0,4.09766,0.0,0.0
48.92,0.0,0.0,4.09604,0.0,0.0
49.92,0.0,0.0,4.09607,0.0,0.0
50.92,0.0,0.0,4.09687,0.0,0.0
51.92,0.0,0.0,4.09664,0.0,0.0
52.92,0.0,0.0,4.097,0.0,0.0
53.92,0.0,0.0,4.09614,0.0,0.0
54.92,0.0,0.0,4.0976,0.0,0.0
55.92,0.0,0.0,4.09643,0.0,0.0
56.92,0.0,0.0,4.09658,0.0,0.0
57.92,0.0,0.0,4.09849,0.0,0.0
58.92,0.0,0.0,4.09659,0.0,0.0
59.92,0.0,0.0,4.09553,0.0,0.0
60.0,0.0,0.0,4.09564,0.0,0.0
60,23.2379,87.51,3.7673,4.58653e-17,1.72721e-16
60.0015,23.238,87.51,3.76495,9.66206e-06,3.63856e-05
60.003,23.238,87.51,3.7662,1.93242e-05,7.27712e-05
60.006,23.2382,87.51,3.76407,3.86484e-05,0.000145542
60.012,23.2384,87.51,3.76666,7.72974e-05,0.000291085
60.0239,23.2389,87.51,3.76713,0.000154597,0.000582169
60.0479,23.2399,87.51,3.76549,0.000309203,0.00116434
60.0718,23.2409,87.51,3.76542,0.000463815,0.00174651
60.1197,23.2428,87.51,3.76503,0.000773066,0.00291085
60.1676,23.2447,87.51,3.76482,0.00108234,0.00407519
60.2155,23.2466,87.51,3.76405,0.00139164,0.00523952
60.3113,23.2504,87.51,3.76342,0.00201035,0.0075682
60.4071,23.2542,87.51,3.76392,0.00262915,0.00989688
60.5987,23.2617,87.51,3.76163,0.00386716,0.0145542
60.7903,23.2693,87.51,3.76206,0.00510557,0.0192116
60.9819,23.277,87.51,3.75813,0.00634439,0.0238689
61.1735,23.2848,87.51,3.75738,0.00758362,0.0285263
61.3651,23.2928,87.51,3.75706,0.00882328,0.0331837
61.7483,23.3095,87.51,3.75277,0.0113044,0.0424984
62.1315,23.3273,87.51,3.75008,0.0137874,0.0518131
62.5147,23.3463,87.51,3.74914,0.0162724,0.0611278
62.8979,23.3665,87.51,3.74624,0.0187596,0.0704425
63.2811,23.3879,87.51,3.74122,0.021249,0.0797572
63.6643,23.4105,87.51,3.73645,0.0237409,0.0890719
64.0474,23.4341,87.51,3.73293,0.0262352,0.0983866
64.4306,23.4589,87.51,3.72969,0.0287322,0.107701
65.197,23.5111,87.51,3.72224,0.0337373,0.126331
65.9634,23.5665,87.51,3.71168,0.0387543,0.14496
66.7298,23.6245,87.51,3.70437,0.0437835,0.16359
67.4962,23.6846,87.51,3.69698,0.0488256,0.182219
68.4962,23.7654,87.51,3.6832,0.0554271,0.206527
69.4962,23.8482,87.51,3.66917,0.0620516,0.230836
70.0,23.8904,87.51,3.6624,0.0653952,0.243083
70,0.0,0.0,4.00119,0.0653952,0.243083
70.0041,0.0,0.0,4.00089,0.0653952,0.243083
70.0081,0.0,0.0,4.00092,0.0653952,0.243083
70.0162,0.0,0.0,4.00181,0.0653952,0.243083
70.0325,0.0,0.0,3.99966,0.0653952,0.243083
70.065,0.0,0.0,4.0002,0.0653952,0.243083
70.0974,0.0,0.0,4.00219,0.0653952,0.243083
70.1299,0.0,0.0,4.00141,0.0653952,0.243083
70.1624,0.0,0.0,4.00405,0.0653952,0.243083
70.2274,0.0,0.0,4.00066,0.0653952,0.243083
70.2923,0.0,0.0,4.00335,0.0653952,0.243083
70.4222,0.0,0.0,4.0039,0.0653952,0.243083
70.5521,0.0,0.0,4.00519,0.0653952,0.243083
70.6821,0.0,0.0,4.00616,0.0653952,0.243083
70.812,0.0,0.0,4.00783,0.0653952,0.243083
70.9419,0.0,0.0,4.00972,0.0653952,0.243083
71.0718,0.0,0.0,4.0099,0.0653952,0.243083
71.3316,0.0,0.0,4.01043,0.0653952,0.243083
71.5915,0.0,0.0,4.01289,0.0653952,0.243083
71.8513,0.0,0.0,4.01431,0.0653952,0.243083
72.1111,0.0,0.0,4.01603,0.0653952,0.243083
72.371,0.0,0.0,4.01674,0.0653952,0.243083
72.6308,0.0,0.0,4.01792,0.0653952,0.243083
72.8906,0.0,0.0,4.02191,0.0653952,0.243083
73.1505,0.0,0.0,4.02232,0.0653952,0.243083
73.4103,0.0,0.0,4.02488,0.0653952,0.243083
73.93,0.0,0.0,4.02633,0.0653952,0.243083
74.4496,0.0,0.0,4.02989,0.0653952,0.243083
75.1398,0.0,0.0,4.03102,0.0653952,0.243083
75.83,0.0,0.0,4.03437,0.0653952,0.243083
76.5202,0.0,0.0,4.03493,0.0653952,0.243083
77.2104,0.0,0.0,4.03872,0.0653952,0.243083
77.9005,0.0,0.0,4.04148,0.0653952,0.243083
78.5907,0.0,0.0,4.04374,0.0653952,0.243083
79.2809,0.0,0.0,4.04594,0.0653952,0.243083
79.9711,0.0,0.0,4.04641,0.0653952,0.243083
80.6613,0.0,0.0,4.04982,0.0653952,0.243083
81.3515,0.0,0.0,4.05045,0.0653952,0.243083
82.0416,0.0,0.0,4.05297,0.0653952,0.243083
82.7318,0.0,0.0,4.05275,0.0653952,0.243083
83.422,0.0,0.0,4.05564,0.0653952,0.243083
84.1122,0.0,0.0,4.0571,0.0653952,0.243083
84.8024,0.0,0.0,4.05656,0.0653952,0.243083
85.4925,0.0,0.0,4.05905,0.0653952,0.243083
86.1827,0.0,0.0,4.05824,0.0653952,0.243083
86.8729,0.0,0.0,4.05906,0.0653952,0.243083
87.5631,0.0,0.0,4.06052,0.0653952,0.243083
88.2533,0.0,0.0,4.05857,0.0653952,0.243083
89.2533,0.0,0.0,4.06324,0.0653952,0.243083
90.2533,0.0,0.0,4.06458,0.0653952,0.243083
91.2533,0.0,0.0,4.0658,0.0653952,0.243083
92.2533,0.0,0.0,4.06466,0.0653952,0.243083
93.2533,0.0,0.0,4.06682,0.0653952,0.243083
94.2533,0.0,0.0,4.06676,0.0653952,0.243083
95.2533,0.0,0.0,4.06823,0.0653952,0.243083
96.2533,0.0,0.0,4.06752,0.0653952,0.243083
97.2533,0.0,0.0,4.06835,0.0653952,0.243083
98.2533,0.0,0.0,4.06886,0.0653952,0.243083
99.2533,0.0,0.0,4.07081,0.0653952,0.243083
100.253,0.0,0.0,4.07264,0.0653952,0.243083
101.253,0.0,0.0,4.07162,0.0653952,0.243083
102.253,0.0,0.0,4.07248,0.0653952,0.243083
103.253,0.0,0.0,4.07384,0.0653952,0.243083
104.253,0.0,0.0,4.07543,0.0653952,0.243083
105.253,0.0,0.0,4.07718,0.0653952,0.243083
106.253,0.0,0.0,4.07572,0.0653952,0.243083
107.253,0.0,0.0,4.07688,0.0653952,0.243083
108.253,0.0,0.0,4.07734,0.0653952,0.243083
109.253,0.0,0.0,4.07791,0.0653952,0.243083
110.253,0.0,0.0,4.07774,0.0653952,0.243083
111.253,0.0,0.0,4.07933,0.0653952,0.243083
112.253,0.0,0.0,4.07888,0.0653952,0.243083
113.253,0.0,0.0,4.08101,0.0653952,0.243083
114.253,0.0,0.0,4.07906,0.0653952,0.243083
115.253,0.0,0.0,4.07818,0.0653952,0.243083
116.253,0.0,0.0,4.08033,0.0653952,0.243083
117.253,0.0,0.0,4.08156,0.0653952,0.243083
118.253,0.0,0.0,4.08146,0.0653952,0.243083
119.253,0.0,0.0,4.08215,0.0653952,0.243083
120.253,0.0,0.0,4.07989,0.0653952,0.243083
121.253,0.0,0.0,4.08048,0.0653952,0.243083
122.253,0.0,0.0,4.08265,0.0653952,0.243083
123.253,0.0,0.0,4.08245,0.0653952,0.243083
124.253,0.0,0.0,4.08249,0.0653952,0.243083
125.253,0.0,0.0,4.08223,0.0653952,0.243083
126.253,0.0,0.0,4.08395,0.0653952,0.243083
127.253,0.0,0.0,4.08536,0.0653952,0.243083
128.253,0.0,0.0,4.08459,0.0653952,0.243083
129.253,0.0,0.0,4.08419,0.0653952,0.243083
130.253,0.0,0.0,4.08519,0.0653952,0.243083
131.253,0.0,0.0,4.08377,0.0653952,0.243083
132.253,0.0,0.0,4.0844,0.0653952,0.243083
133.253,0.0,0.0,4.08428,0.0653952,0.243083
134.253,0.0,0.0,4.08437,0.0653952,0.243083
135.253,0.0,0.0,4.08574,0.0653952,0.243083
136.253,0.0,0.0,4.0842,0.0653952,0.243083
137.253,0.0,0.0,4.08586,0.0653952,0.243083
138.253,0.0,0.0,4.08585,0.0653952,0.243083
139.253,0.0,0.0,4.08685,0.0653952,0.243083
140.253,0.0,0.0,4.08672,0.0653952,0.243083
141.253,0.0,0.0,4.08681,0.0653952,0.243083
142.253,0.0,0.0,4.08642,0.0653952,0.243083
143.253,0.0,0.0,4.08628,0.0653952,0.243083
144.253,0.0,0.0,4.08615,0.0653952,0.243083
145.253,0.0,0.0,4.08695,0.0653952,0.243083
146.253,0.0,0.0,4.0866,0.0653952,0.243083
147.253,0.0,0.0,4.08756,0.0653952,0.243083
148.253,0.0,0.0,4.08545,0.0653952,0.243083
149.253,0.0,0.0,4.08896,0.0653952,0.243083
150.253,0.0,0.0,4.08614,0.0653952,0.243083
151.253,0.0,0.0,4.0883,0.0653952,0.243083
152.253,0.0,0.0,4.0875,0.0653952,0.243083
153.253,0.0,0.0,4.08998,0.0653952,0.243083
154.253,0.0,0.0,4.08959,0.0653952,0.243083
155.253,0.0,0.0,4.08661,0.0653952,0.243083
156.253,0.0,0.0,4.08934,0.0653952,0.243083
157.253,0.0,0.0,4.08805,0.0653952,0.243083
158.253,0.0,0.0,4.08762,0.0653952,0.243083
159.253,0.0,0.0,4.08975,0.0653952,0.243083
160.253,0.0,0.0,4.08916,0.0653952,0.243083
161.253,0.0,0.0,4.09007,0.0653952,0.243083
162.253,0.0,0.0,4.08996,0.0653952,0.243083
163.253,0.0,0.0,4.08815,0.0653952,0.243083
164.253,0.0,0.0,4.08959,0.0653952,0.243083
165.253,0.0,0.0,4.0888,0.0653952,0.243083
166.253,0.0,0.0,4.08926,0.0653952,0.243083
167.253,0.0,0.0,4.08891,0.0653952,0.243083
168.253,0.0,0.0,4.08757,0.0653952,0.243083
169.253,0.0,0.0,4.08934,0.0653952,0.243083
170.253,0.0,0.0,4.0911,0.0653952,0.243083
171.253,0.0,0.0,4.08978,0.0653952,0.243083
172.253,0.0,0.0,4.09194,0.0653952,0.243083
173.253,0.0,0.0,4.09146,0.0653952,0.243083
174.253,0.0,0.0,4.08745,0.0653952,0.243083
175.253,0.0,0.0,4.09116,0.0653952,0.243083
176.253,0.0,0.0,4.08964,0.0653952,0.243083
177.253,0.0,0.0,4.09061,0.0653952,0.243083
178.253,0.0,0.0,4.0883,0.0653952,0.243083
179.253,0.0,0.0,4.08917,0.0653952,0.243083
180.253,0.0,0.0,4.09072,0.0653952,0.243083
181.253,0.0,0.0,4.0908,0.0653952,0.243083
182.253,0.0,0.0,4.09066,0.0653952,0.243083
183.253,0.0,0.0,4.08959,0.0653952,0.243083
184.253,0.0,0.0,4.09043,0.0653952,0.243083
185.253,0.0,0.0,4.09021,0.0653952,0.243083
186.253,0.0,0.0,4.09034,0.0653952,0.243083
187.253,0.0,0.0,4.09146,0.0653952,0.243083
188.253,0.0,0.0,4.09108,0.0653952,0.243083
189.253,0.0,0.0,4.0902,0.0653952,0.243083
190.253,0.0,0.0,4.09114,0.0653952,0.243083
191.253,0.0,0.0,4.09165,0.0653952,0.243083
192.253,0.0,0.0,4.09117,0.0653952,0.243083
193.253,0.0,0.0,4.0907,0.0653952,0.243083
194.253,0.0,0.0,4.09174,0.0653952,0.243083
195.253,0.0,0.0,4.09013,0.0653952,0.243083
196.253,0.0,0.0,4.09232,0.0653952,0.243083
197.253,0.0,0.0,4.09243,0.0653952,0.243083
198.253,0.0,0.0,4.09219,0.0653952,0.243083
199.253,0.0,0.0,4.09108,0.0653952,0.243083
200.253,0.0,0.0,4.09121,0.0653952,0.243083
201.253,0.0,0.0,4.09078,0.0653952,0.243083
202.253,0.0,0.0,4.09146,0.0653952,0.243083
203.253,0.0,0.0,4.09125,0.0653952,0.243083
204.253,0.0,0.0,4.09109,0.0653952,0.243083
205.253,0.0,0.0,4.09427,0.0653952,0.243083
206.253,0.0,0.0,4.09091,0.0653952,0.243083
207.253,0.0,0.0,4.09165,0.0653952,0.243083
208.253,0.0,0.0,4.09187,0.0653952,0.243083
209.253,0.0,0.0,4.09073,0.0653952,0.243083
210.253,0.0,0.0,4.0923,0.0653952,0.243083
211.253,0.0,0.0,4.09137,0.0653952,0.243083
212.253,0.0,0.0,4.09183,0.0653952,0.243083
213.253,0.0,0.0,4.0906,0.0653952,0.243083
214.253,0.0,0.0,4.09293,0.0653952,0.243083
215.253,0.0,0.0,4.09219,0.0653952,0.243083
216.253,0.0,0.0,4.09077,0.0653952,0.243083
217.253,0.0,0.0,4.09117,0.0653952,0.243083
218.253,0.0,0.0,4.0905,0.0653952,0.243083
219.253,0.0,0.0,4.09194,0.0653952,0.243083
220.253,0.0,0.0,4.09345,0.0653952,0.243083
221.253,0.0,0.0,4.09011,0.0653952,0.243083
222.253,0.0,0.0,4.09108,0.0653952,0.243083
223.253,0.0,0.0,4.09249,0.0653952,0.243083
224.253,0.0,0.0,4.09241,0.0653952,0.243083
225.253,0.0,0.0,4.09288,0.0653952,0.243083
226.253,0.0,0.0,4.09256,0.0653952,0.243083
227.253,0.0,0.0,4.09263,0.0653952,0.243083
228.253,0.0,0.0,4.09219,0.0653952,0.243083
229.253,0.0,0.0,4.09167,0.0653952,0.243083
230.253,0.0,0.0,4.09274,0.0653952,0.243083
231.253,0.0,0.0,4.09116,0.0653952,0.243083
232.253,0.0,0.0,4.09288,0.0653952,0.243083
233.253,0.0,0.0,4.09074,0.0653952,0.243083
234.253,0.0,0.0,4.09227,0.0653952,0.243083
235.253,0.0,0.0,4.09183,0.0653952,0.243083
236.253,0.0,0.0,4.09192,0.0653952,0.243083
237.253,0.0,0.0,4.09136,0.0653952,0.243083
238.253,0.0,0.0,4.09217,0.0653952,0.243083
239.253,0.0,0.0,4.09495,0.0653952,0.243083
240.253,0.0,0.0,4.09183,0.0653952,0.243083
241.253,0.0,0.0,4.09345,0.0653952,0.243083
242.253,0.0,0.0,4.09103,0.0653952,0.243083
243.253,0.0,0.0,4.09199,0.0653952,0.243083
244.253,0.0,0.0,4.09077,0.0653952,0.243083
245.253,0.0,0.0,4.09279,0.0653952,0.243083
246.253,0.0,0.0,4.09202,0.0653952,0.243083
247.253,0.0,0.0,4.09174,0.0653952,0.243083
248.253,0.0,0.0,4.09402,0.0653952,0.243083
249.253,0.0,0.0,4.09147,0.0653952,0.243083
250.253,0.0,0.0,4.09283,0.0653952,0.243083
251.253,0.0,0.0,4.08932,0.0653952,0.243083
252.253,0.0,0.0,4.09147,0.0653952,0.243083
253.253,0.0,0.0,4.09179,0.0653952,0.243083
254.253,0.0,0.0,4.09154,0.0653952,0.243083
255.253,0.0,0.0,4.0928,0.0653952,0.243083
256.253,0.0,0.0,4.09461,0.0653952,0.243083
257.253,0.0,0.0,4.09211,0.0653952,0.243083
258.253,0.0,0.0,4.09087,0.0653952,0.243083
259.253,0.0,0.0,4.09247,0.0653952,0.243083
260.253,0.0,0.0,4.09373,0.0653952,0.243083
261.253,0.0,0.0,4.09181,0.0653952,0.243083
262.253,0.0,0.0,4.09159,0.0653952,0.243083
263.253,0.0,0.0,4.09136,0.0653952,0.243083
264.253,0.0,0.0,4.09199,0.0653952,0.243083
265.253,0.0,0.0,4.09296,0.0653952,0.243083
266.253,0.0,0.0,4.09311,0.0653952,0.243083
267.253,0.0,0.0,4.09318,0.0653952,0.243083
268.253,0.0,0.0,4.0924,0.0653952,0.243083
269.253,0.0,0.0,4.09393,0.0653952,0.243083
270.253,0.0,0.0,4.09188,0.0653952,0.243083
271.253,0.0,0.0,4.09294,0.0653952,0.243083
272.253,0.0,0.0,4.09208,0.0653952,0.243083
273.253,0.0,0.0,4.09289,0.0653952,0.243083
274.253,0.0,0.0,4.09183,0.0653952,0.243083
275.253,0.0,0.0,4.09181,0.0653952,0.243083
276.253,0.0,0.0,4.09307,0.0653952,0.243083
277.253,0.0,0.0,4.09402,0.0653952,0.243083
278.253,0.0,0.0,4.09104,0.0653952,0.243083
279.253,0.0,0.0,4.09288,0.0653952,0.243083
280.253,0.0,0.0,4.09307,0.0653952,0.243083
281.253,0.0,0.0,4.09268,0.0653952,0.243083
282.253,0.0,0.0,4.0925,0.0653952,0.243083
283.253,0.0,0.0,4.0918,0.0653952,0.243083
284.253,0.0,0.0,4.093,0.0653952,0.243083
285.253,0.0,0.0,4.09154,0.0653952,0.243083
286.253,0.0,0.0,4.09319,0.0653952,0.243083
287.253,0.0,0.0,4.09146,0.0653952,0.243083
288.253,0.0,0.0,4.09314,0.0653952,0.243083
289.253,0.0,0.0,4.09241,0.0653952,0.243083
290.253,0.0,0.0,4.09351,0.0653952,0.243083
291.253,0.0,0.0,4.09337,0.0653952,0.243083
292.253,0.0,0.0,4.09244,0.0653952,0.243083
293.253,0.0,0.0,4.09198,0.0653952,0.243083
294.253,0.0,0.0,4.0922,0.0653952,0.243083
295.253,0.0,0.0,4.09335,0.0653952,0.243083
296.253,0.0,0.0,4.09238,0.0653952,0.243083
297.253,0.0,0.0,4.09168,0.0653952,0.243083
298.253,0.0,0.0,4.093,0.0653952,0.243083
299.253,0.0,0.0,4.09205,0.0653952,0.243083
300.253,0.0,0.0,4.09423,0.0653952,0.243083
301.253,0.0,0.0,4.09317,0.0653952,0.243083
302.253,0.0,0.0,4.09382,0.0653952,0.243083
303.253,0.0,0.0,4.09265,0.0653952,0.243083
304.253,0.0,0.0,4.09255,0.0653952,0.243083
305.253,0.0,0.0,4.09271,0.0653952,0.243083
306.253,0.0,0.0,4.09124,0.0653952,0.243083
307.253,0.0,0.0,4.09245,0.0653952,0.243083
308.253,0.0,0.0,4.09322,0.0653952,0.243083
309.253,0.0,0.0,4.09536,0.0653952,0.243083
310.253,0.0,0.0,4.09182,0.0653952,0.243083
311.253,0.0,0.0,4.09303,0.0653952,0.243083
312.253,0.0,0.0,4.09261,0.0653952,0.243083
313.253,0.0,0.0,4.09313,0.0653952,0.243083
314.253,0.0,0.0,4.0935,0.0653952,0.243083
315.253,0.0,0.0,4.09195,0.0653952,0.243083
316.253,0.0,0.0,4.09373,0.0653952,0.243083
317.253,0.0,0.0,4.09303,0.0653952,0.243083
318.253,0.0,0.0,4.09171,0.0653952,0.243083
319.253,0.0,0.0,4.09297,0.0653952,0.243083
320.253,0.0,0.0,4.09166,0.0653952,0.243083
321.253,0.0,0.0,4.093,0.0653952,0.243083
322.253,0.0,0.0,4.09126,0.0653952,0.243083
323.253,0.0,0.0,4.09362,0.0653952,0.243083
324.253,0.0,0.0,4.09104,0.0653952,0.243083
325.253,0.0,0.0,4.09156,0.0653952,0.243083
326.253,0.0,0.0,4.09273,0.0653952,0.243083
327.253,0.0,0.0,4.09201,0.0653952,0.243083
328.253,0.0,0.0,4.0948,0.0653952,0.243083
329.253,0.0,0.0,4.09479,0.0653952,0.243083
330.253,0.0,0.0,4.0931,0.0653952,0.243083
331.253,0.0,0.0,4.09244,0.0653952,0.243083
332.253,0.0,0.0,4.09279,0.0653952,0.243083
333.253,0.0,0.0,4.09124,0.0653952,0.243083
334.253,0.0,0.0,4.09133,0.0653952,0.243083
335.253,0.0,0.0,4.09272,0.0653952,0.243083
336.253,0.0,0.0,4.09172,0.0653952,0.243083
337.253,0.0,0.0,4.09254,0.0653952,0.243083
338.253,0.0,0.0,4.09341,0.0653952,0.243083
339.253,0.0,0.0,4.09465,0.0653952,0.243083
340.253,0.0,0.0,4.09241,0.0653952,0.243083
341.253,0.0,0.0,4.09192,0.0653952,0.243083
342.253,0.0,0.0,4.09301,0.0653952,0.243083
343.253,0.0,0.0,4.09507,0.0653952,0.243083
344.253,0.0,0.0,4.09194,0.0653952,0.243083
345.253,0.0,0.0,4.09264,0.0653952,0.243083
346.253,0.0,0.0,4.09363,0.0653952,0.243083
347.253,0.0,0.0,4.09192,0.0653952,0.243083
348.253,0.0,0.0,4.09334,0.0653952,0.243083
349.253,0.0,0.0,4.09117,0.0653952,0.243083
350.253,0.0,0.0,4.09376,0.0653952,0.243083
351.253,0.0,0.0,4.09225,0.0653952,0.243083
352.253,0.0,0.0,4.09392,0.0653952,0.243083
353.253,0.0,0.0,4.09434,0.0653952,0.243083
354.253,0.0,0.0,4.09246,0.0653952,0.243083
355.253,0.0,0.0,4.09315,0.0653952,0.243083
356.253,0.0,0.0,4.09198,0.0653952,0.243083
357.253,0.0,0.0,4.0923,0.0653952,0.243083
358.253,0.0,0.0,4.09424,0.0653952,0.243083
359.253,0.0,0.0,4.0916,0.0653952,0.243083
360.253,0.0,0.0,4.09434,0.0653952,0.243083
361.253,0.0,0.0,4.09216,0.0653952,0.243083
362.253,0.0,0.0,4.092,0.0653952,0.243083
363.253,0.0,0.0,4.09341,0.0653952,0.243083
364.253,0.0,0.0,4.09337,0.0653952,0.243083
365.253,0.0,0.0,4.09205,0.0653952,0.243083
366.253,0.0,0.0,4.09274,0.0653952,0.243083
367.253,0.0,0.0,4.09333,0.0653952,0.243083
368.253,0.0,0.0,4.09442,0.0653952,0.243083
369.253,0.0,0.0,4.09258,0.0653952,0.243083
370.0,0.0,0.0,4.09258,0.0653952,0.243083