File: output/use_case_2_1.0E.csv
Time [s],Current [A],Power [W],Voltage [V],Capacity [Ah],Energy [Wh]
0.0,0.0,0.0,4.09698,0.0,0.0
0.06,0.0,0.0,4.09738,0.0,0.0
0.12,0.0,0.0,4.09676,0.0,0.0
0.24,0.0,0.0,4.09682,0.0,0.0
0.48,0.0,0.0,4.09548,0.0,0.0
0.96,0.0,0.0,4.09779,0.0,0.0
1.92,0.0,0.0,4.09629,0.0,0.0
2.92,0.0,0.0,4.0942,0.0,0.0
3.92,0.0,0.0,4.09723,0.0,0.0
4.92,0.0,0.0,4.0969,0.0,0.0
5.92,0.0,0.0,4.09894,0.0,0.0
6.92,0.0,0.0,4.09751,0.0,0.0
7.92,0.0,0.0,4.09613,0.0,0.0
8.92,0.0,0.0,4.09799,0.0,0.0
9.92,0.0,0.0,4.09645,0.0,0.0
10.92,0.0,0.0,4.09841,0.0,0.0
11.92,0.0,0.0,4.09703,0.0,0.0
12.92,0.0,0.0,4.09567,0.0,0.0
13.92,0.0,0.0,4.09619,0.0,0.0
14.92,0.0,0.0,4.09739,0.0,0.0
15.92,0.0,0.0,4.09853,0.0,0.0
16.92,0.0,0.0,4.09672,0.0,0.0
17.92,0.0,0.0,4.09746,0.0,0.0
18.92,0.0,0.0,4.09674,0.0,0.0
19.92,0.0,0.0,4.09712,0.0,0.0
20.92,0.0,0.0,4.09692,0.0,0.0
21.92,0.0,0.0,4.09607,0.0,0.0
22.92,0.0,0.0,4.09593,0.0,0.0
23.92,0.0,0.0,4.09522,0.0,0.0
24.92,0.0,0.0,4.09675,0.0,0.0
25.92,0.0,0.0,4.09469,0.0,0.0
26.92,0.0,0.0,4.0968,0.0,0.0
27.92,0.0,0.0,4.0978,0.0,0.0
28.92,0.0,0.0,4.09858,0.0,0.0
29.92,0.0,0.0,4.09794,0.0,0.0
30.92,0.0,0.0,4.0975,0.0,0.0
31.92,0.0,0.0,4.10004,0.0,0.0
32.92,0.0,0.0,4.09709,0.0,0.0
33.92,0.0,0.0,4.09614,0.0,0.0
34.92,0.0,0.0,4.09715,0.0,0.0
35.92,0.0,0.0,4.09556,0.0,0.0
36.92,0.0,0.0,4.09687,0.0,0.0
37.92,0.0,0.0,4.0973,0.0,0.0
38.92,0.0,0.0,4.09702,0.0,0.0
39.92,0.0,0.0,4.0961,0.0,0.0
40.92,0.0,0.0,4.09803,0.0,0.0
41.92,0.0,0.0,4.09697,0.0,0.0
42.92,0.0,0.0,4.09679,0.0,0.0
43.92,0.0,0.0,4.09488,0.0,0.0
44.92,0.0,0.0,4.09508,0.0,0.0
45.92,0.0,0.0,4.09719,0.0,0.0
46.92,0.0,0.0,4.09448,0.0,0.0
47.92,0.0,0.0,4.09737,0.0,0.0
48.92,0.0,0.0,4.09549,0.0,0.0
49.92,0.0,0.0,4.09813,0.0,0.0
50.92,0.0,0.0,4.09623,0.0,0.0
51.92,0.0,0.0,4.09591,0.0,0.0
52.92,0.0,0.0,4.09624,0.0,0.0
53.92,0.0,0.0,4.09661,0.0,0.0
54.92,0.0,0.0,4.09717,0.0,0.0
55.92,0.0,0.0,4.09515,0.0,0.0
56.92,0.0,0.0,4.09785,0.0,0.0
57.92,0.0,0.0,4.09625,0.0,0.0
58.92,0.0,0.0,4.09602,0.0,0.0
59.92,0.0,0.0,4.09657,0.0,0.0
60.0,0.0,0.0,4.09702,0.0,0.0
60,4.4002,17.5,3.97731,8.6848e-18,3.45403e-17
60.008,4.40021,17.5,3.97712,9.75723e-06,3.88053e-05
60.016,4.40022,17.5,3.97853,1.95145e-05,7.76107e-05
60.0319,4.40024,17.5,3.97978,3.90291e-05,0.000155221
60.0639,4.40027,17.5,3.97764,7.80586e-05,0.000310443
60.1277,4.40035,17.5,3.97689,0.000156119,0.000620886
60.2555,4.4005,17.5,3.97641,0.000312245,0.00124177
60.3832,4.40066,17.5,3.97771,0.000468377,0.00186266
60.6386,4.40095,17.5,3.97691,0.000780661,0.00310443
60.8941,4.40125,17.5,3.97428,0.00109297,0.0043462
61.1495,4.40154,17.5,3.97501,0.00140529,0.00558797
61.6604,4.40211,17.5,3.97596,0.00203003,0.00807151
62.1713,4.40267,17.5,3.97405,0.00265484,0.0105551
63.1713,4.40373,17.5,3.97144,0.0038781,0.0154162
64.1713,4.40476,17.5,3.97301,0.00510164,0.0202773
65.1713,4.40574,17.5,3.97458,0.00632546,0.0251384
66.1713,4.4067,17.5,3.97229,0.00754954,0.0299995
67.1713,4.40763,17.5,3.97139,0.00877388,0.0348606
68.1713,4.40854,17.5,3.96799,0.00999848,0.0397217
69.1713,4.40942,17.5,3.96804,0.0112233,0.0445828
70.0,4.41014,17.5,3.96819,0.0122385,0.0486111
70,0.0,0.0,4.08387,0.0122385,0.0486111
70.0197,0.0,0.0,4.08496,0.0122385,0.0486111
70.0365,0.0,0.0,4.08466,0.0122385,0.0486111
70.0702,0.0,0.0,4.08508,0.0122385,0.0486111
70.1375,0.0,0.0,4.08554,0.0122385,0.0486111
70.2048,0.0,0.0,4.08581,0.0122385,0.0486111
70.3394,0.0,0.0,4.0848,0.0122385,0.0486111
70.4741,0.0,0.0,4.08623,0.0122385,0.0486111
70.6087,0.0,0.0,4.08469,0.0122385,0.0486111
70.878,0.0,0.0,4.08406,0.0122385,0.0486111
71.1473,0.0,0.0,4.087,0.0122385,0.0486111
71.6859,0.0,0.0,4.08531,0.0122385,0.0486111
72.1706,0.0,0.0,4.08425,0.0122385,0.0486111
72.6554,0.0,0.0,4.08652,0.0122385,0.0486111
73.1401,0.0,0.0,4.08566,0.0122385,0.0486111
73.6248,0.0,0.0,4.0879,0.0122385,0.0486111
74.5943,0.0,0.0,4.08898,0.0122385,0.0486111
75.5638,0.0,0.0,4.08892,0.0122385,0.0486111
76.5638,0.0,0.0,4.08825,0.0122385,0.0486111
77.5638,0.0,0.0,4.08799,0.0122385,0.0486111
78.5638,0.0,0.0,4.08965,0.0122385,0.0486111
79.5638,0.0,0.0,4.08983,0.0122385,0.0486111
80.5638,0.0,0.0,4.08856,0.0122385,0.0486111
81.5638,0.0,0.0,4.08923,0.0122385,0.0486111
82.5638,0.0,0.0,4.09111,0.0122385,0.0486111
83.5638,0.0,0.0,4.09041,0.0122385,0.0486111
84.5638,0.0,0.0,4.09058,0.0122385,0.0486111
85.5638,0.0,0.0,4.09071,0.0122385,0.0486111
86.5638,0.0,0.0,4.0904,0.0122385,0.0486111
87.5638,0.0,0.0,4.09022,0.0122385,0.0486111
88.5638,0.0,0.0,4.08985,0.0122385,0.0486111
89.5638,0.0,0.0,4.09239,0.0122385,0.0486111
90.5638,0.0,0.0,4.09167,0.0122385,0.0486111
91.5638,0.0,0.0,4.08901,0.0122385,0.0486111
92.5638,0.0,0.0,4.09166,0.0122385,0.0486111
93.5638,0.0,0.0,4.09116,0.0122385,0.0486111
94.5638,0.0,0.0,4.09216,0.0122385,0.0486111
95.5638,0.0,0.0,4.09054,0.0122385,0.0486111
96.5638,0.0,0.0,4.09221,0.0122385,0.0486111
97.5638,0.0,0.0,4.09196,0.0122385,0.0486111
98.5638,0.0,0.0,4.09283,0.0122385,0.0486111
99.5638,0.0,0.0,4.0934,0.0122385,0.0486111
100.564,0.0,0.0,4.09291,0.0122385,0.0486111
101.564,0.0,0.0,4.09224,0.0122385,0.0486111
102.564,0.0,0.0,4.09298,0.0122385,0.0486111
103.564,0.0,0.0,4.0925,0.0122385,0.0486111
104.564,0.0,0.0,4.0933,0.0122385,0.0486111
105.564,0.0,0.0,4.09199,0.0122385,0.0486111
106.564,0.0,0.0,4.09275,0.0122385,0.0486111
107.564,0.0,0.0,4.09302,0.0122385,0.0486111
108.564,0.0,0.0,4.09296,0.0122385,0.0486111
109.564,0.0,0.0,4.09433,0.0122385,0.0486111
110.564,0.0,0.0,4.09237,0.0122385,0.0486111
111.564,0.0,0.0,4.09273,0.0122385,0.0486111
112.564,0.0,0.0,4.09501,0.0122385,0.0486111
113.564,0.0,0.0,4.09627,0.0122385,0.0486111
114.564,0.0,0.0,4.09304,0.0122385,0.0486111
115.564,0.0,0.0,4.09264,0.0122385,0.0486111
116.564,0.0,0.0,4.09336,0.0122385,0.0486111
117.564,0.0,0.0,4.09054,0.0122385,0.0486111
118.564,0.0,0.0,4.09518,0.0122385,0.0486111
119.564,0.0,0.0,4.09282,0.0122385,0.0486111
120.564,0.0,0.0,4.09381,0.0122385,0.0486111
121.564,0.0,0.0,4.09299,0.0122385,0.0486111
122.564,0.0,0.0,4.09338,0.0122385,0.0486111
123.564,0.0,0.0,4.09472,0.0122385,0.0486111
124.564,0.0,0.0,4.09417,0.0122385,0.0486111
125.564,0.0,0.0,4.09462,0.0122385,0.0486111
126.564,0.0,0.0,4.09455,0.0122385,0.0486111
127.564,0.0,0.0,4.0954,0.0122385,0.0486111
128.564,0.0,0.0,4.09441,0.0122385,0.0486111
129.564,0.0,0.0,4.0945,0.0122385,0.0486111
130.564,0.0,0.0,4.09501,0.0122385,0.0486111
131.564,0.0,0.0,4.09375,0.0122385,0.0486111
132.564,0.0,0.0,4.09592,0.0122385,0.0486111
133.564,0.0,0.0,4.09681,0.0122385,0.0486111
134.564,0.0,0.0,4.09531,0.0122385,0.0486111
135.564,0.0,0.0,4.09608,0.0122385,0.0486111
136.564,0.0,0.0,4.09504,0.0122385,0.0486111
137.564,0.0,0.0,4.09593,0.0122385,0.0486111
138.564,0.0,0.0,4.09511,0.0122385,0.0486111
139.564,0.0,0.0,4.09574,0.0122385,0.0486111
140.564,0.0,0.0,4.09478,0.0122385,0.0486111
141.564,0.0,0.0,4.09406,0.0122385,0.0486111
142.564,0.0,0.0,4.09473,0.0122385,0.0486111
143.564,0.0,0.0,4.09374,0.0122385,0.0486111
144.564,0.0,0.0,4.09414,0.0122385,0.0486111
145.564,0.0,0.0,4.09585,0.0122385,0.0486111
146.564,0.0,0.0,4.0964,0.0122385,0.0486111
147.564,0.0,0.0,4.09528,0.0122385,0.0486111
148.564,0.0,0.0,4.09567,0.0122385,0.0486111
149.564,0.0,0.0,4.09517,0.0122385,0.0486111
150.564,0.0,0.0,4.09449,0.0122385,0.0486111
151.564,0.0,0.0,4.09495,0.0122385,0.0486111
152.564,0.0,0.0,4.0957,0.0122385,0.0486111
153.564,0.0,0.0,4.0942,0.0122385,0.0486111
154.564,0.0,0.0,4.09459,0.0122385,0.0486111
155.564,0.0,0.0,4.09608,0.0122385,0.0486111
156.564,0.0,0.0,4.09566,0.0122385,0.0486111
157.564,0.0,0.0,4.09673,0.0122385,0.0486111
158.564,0.0,0.0,4.09573,0.0122385,0.0486111
159.564,0.0,0.0,4.09612,0.0122385,0.0486111
160.564,0.0,0.0,4.09532,0.0122385,0.0486111
161.564,0.0,0.0,4.09344,0.0122385,0.0486111
162.564,0.0,0.0,4.0961,0.0122385,0.0486111
163.564,0.0,0.0,4.09548,0.0122385,0.0486111
164.564,0.0,0.0,4.09704,0.0122385,0.0486111
165.564,0.0,0.0,4.09513,0.0122385,0.0486111
166.564,0.0,0.0,4.09436,0.0122385,0.0486111
167.564,0.0,0.0,4.0955,0.0122385,0.0486111
168.564,0.0,0.0,4.09583,0.0122385,0.0486111
169.564,0.0,0.0,4.09593,0.0122385,0.0486111
170.564,0.0,0.0,4.0946,0.0122385,0.0486111
171.564,0.0,0.0,4.09434,0.0122385,0.0486111
172.564,0.0,0.0,4.09638,0.0122385,0.0486111
173.564,0.0,0.0,4.09315,0.0122385,0.0486111
174.564,0.0,0.0,4.09452,0.0122385,0.0486111
175.564,0.0,0.0,4.09471,0.0122385,0.0486111
176.564,0.0,0.0,4.09501,0.0122385,0.0486111
177.564,0.0,0.0,4.09551,0.0122385,0.0486111
178.564,0.0,0.0,4.0946,0.0122385,0.0486111
179.564,0.0,0.0,4.09336,0.0122385,0.0486111
180.564,0.0,0.0,4.09637,0.0122385,0.0486111
181.564,0.0,0.0,4.09583,0.0122385,0.0486111
182.564,0.0,0.0,4.09402,0.0122385,0.0486111
183.564,0.0,0.0,4.09633,0.0122385,0.0486111
184.564,0.0,0.0,4.09492,0.0122385,0.0486111
185.564,0.0,0.0,4.09595,0.0122385,0.0486111
186.564,0.0,0.0,4.09578,0.0122385,0.0486111
187.564,0.0,0.0,4.09607,0.0122385,0.0486111
188.564,0.0,0.0,4.09379,0.0122385,0.0486111
189.564,0.0,0.0,4.09688,0.0122385,0.0486111
190.564,0.0,0.0,4.0952,0.0122385,0.0486111
191.564,0.0,0.0,4.09427,0.0122385,0.0486111
192.564,0.0,0.0,4.09555,0.0122385,0.0486111
193.564,0.0,0.0,4.09723,0.0122385,0.0486111
194.564,0.0,0.0,4.09398,0.0122385,0.0486111
195.564,0.0,0.0,4.09581,0.0122385,0.0486111
196.564,0.0,0.0,4.09664,0.0122385,0.0486111
197.564,0.0,0.0,4.09634,0.0122385,0.0486111
198.564,0.0,0.0,4.09696,0.0122385,0.0486111
199.564,0.0,0.0,4.09683,0.0122385,0.0486111
200.564,0.0,0.0,4.09678,0.0122385,0.0486111
201.564,0.0,0.0,4.09473,0.0122385,0.0486111
202.564,0.0,0.0,4.09534,0.0122385,0.0486111
203.564,0.0,0.0,4.09494,0.0122385,0.0486111
204.564,0.0,0.0,4.09473,0.0122385,0.0486111
205.564,0.0,0.0,4.09464,0.0122385,0.0486111
206.564,0.0,0.0,4.09805,0.0122385,0.0486111
207.564,0.0,0.0,4.09471,0.0122385,0.0486111
208.564,0.0,0.0,4.09683,0.0122385,0.0486111
209.564,0.0,0.0,4.09494,0.0122385,0.0486111
210.564,0.0,0.0,4.09544,0.0122385,0.0486111
211.564,0.0,0.0,4.09527,0.0122385,0.0486111
212.564,0.0,0.0,4.09401,0.0122385,0.0486111
213.564,0.0,0.0,4.09681,0.0122385,0.0486111
214.564,0.0,0.0,4.09848,0.0122385,0.0486111
215.564,0.0,0.0,4.09766,0.0122385,0.0486111
216.564,0.0,0.0,4.09534,0.0122385,0.0486111
217.564,0.0,0.0,4.09349,0.0122385,0.0486111
218.564,0.0,0.0,4.09676,0.0122385,0.0486111
219.564,0.0,0.0,4.09551,0.0122385,0.0486111
220.564,0.0,0.0,4.09821,0.0122385,0.0486111
221.564,0.0,0.0,4.09432,0.0122385,0.0486111
222.564,0.0,0.0,4.09419,0.0122385,0.0486111
223.564,0.0,0.0,4.09298,0.0122385,0.0486111
224.564,0.0,0.0,4.09609,0.0122385,0.0486111
225.564,0.0,0.0,4.09511,0.0122385,0.0486111
226.564,0.0,0.0,4.09574,0.0122385,0.0486111
227.564,0.0,0.0,4.09504,0.0122385,0.0486111
228.564,0.0,0.0,4.09794,0.0122385,0.0486111
229.564,0.0,0.0,4.09556,0.0122385,0.0486111
230.564,0.0,0.0,4.09536,0.0122385,0.0486111
231.564,0.0,0.0,4.09542,0.0122385,0.0486111
232.564,0.0,0.0,4.09589,0.0122385,0.0486111
233.564,0.0,0.0,4.0958,0.0122385,0.0486111
234.564,0.0,0.0,4.0935,0.0122385,0.0486111
235.564,0.0,0.0,4.09407,0.0122385,0.0486111
236.564,0.0,0.0,4.09601,0.0122385,0.0486111
237.564,0.0,0.0,4.09707,0.0122385,0.0486111
238.564,0.0,0.0,4.09537,0.0122385,0.0486111
239.564,0.0,0.0,4.09765,0.0122385,0.0486111
240.564,0.0,0.0,4.09655,0.0122385,0.0486111
241.564,0.0,0.0,4.09564,0.0122385,0.0486111
242.564,0.0,0.0,4.09566,0.0122385,0.0486111
243.564,0.0,0.0,4.09486,0.0122385,0.0486111
244.564,0.0,0.0,4.096,0.0122385,0.0486111
245.564,0.0,0.0,4.09478,0.0122385,0.0486111
246.564,0.0,0.0,4.09611,0.0122385,0.0486111
247.564,0.0,0.0,4.09535,0.0122385,0.0486111
248.564,0.0,0.0,4.09508,0.0122385,0.0486111
249.564,0.0,0.0,4.09724,0.0122385,0.0486111
250.564,0.0,0.0,4.09573,0.0122385,0.0486111
251.564,0.0,0.0,4.09752,0.0122385,0.0486111
252.564,0.0,0.0,4.09554,0.0122385,0.0486111
253.564,0.0,0.0,4.09617,0.0122385,0.0486111
254.564,0.0,0.0,4.09559,0.0122385,0.0486111
255.564,0.0,0.0,4.09679,0.0122385,0.0486111
256.564,0.0,0.0,4.09546,0.0122385,0.0486111
257.564,0.0,0.0,4.09549,0.0122385,0.0486111
258.564,0.0,0.0,4.0965,0.0122385,0.0486111
259.564,0.0,0.0,4.09566,0.0122385,0.0486111
260.564,0.0,0.0,4.09563,0.0122385,0.0486111
261.564,0.0,0.0,4.09446,0.0122385,0.0486111
262.564,0.0,0.0,4.09638,0.0122385,0.0486111
263.564,0.0,0.0,4.09499,0.0122385,0.0486111
264.564,0.0,0.0,4.09587,0.0122385,0.0486111
265.564,0.0,0.0,4.09664,0.0122385,0.0486111
266.564,0.0,0.0,4.09556,0.0122385,0.0486111
267.564,0.0,0.0,4.0944,0.0122385,0.0486111
268.564,0.0,0.0,4.09532,0.0122385,0.0486111
269.564,0.0,0.0,4.0961,0.0122385,0.0486111
270.564,0.0,0.0,4.0973,0.0122385,0.0486111
271.564,0.0,0.0,4.09452,0.0122385,0.0486111
272.564,0.0,0.0,4.09641,0.0122385,0.0486111
273.564,0.0,0.0,4.09561,0.0122385,0.0486111
274.564,0.0,0.0,4.09528,0.0122385,0.0486111
275.564,0.0,0.0,4.09589,0.0122385,0.0486111
276.564,0.0,0.0,4.09592,0.0122385,0.0486111
277.564,0.0,0.0,4.09541,0.0122385,0.0486111
278.564,0.0,0.0,4.09299,0.0122385,0.0486111
279.564,0.0,0.0,4.09676,0.0122385,0.0486111
280.564,0.0,0.0,4.09473,0.0122385,0.0486111
281.564,0.0,0.0,4.09519,0.0122385,0.0486111
282.564,0.0,0.0,4.09459,0.0122385,0.0486111
283.564,0.0,0.0,4.09643,0.0122385,0.0486111
284.564,0.0,0.0,4.09628,0.0122385,0.0486111
285.564,0.0,0.0,4.0959,0.0122385,0.0486111
286.564,0.0,0.0,4.09483,0.0122385,0.0486111
287.564,0.0,0.0,4.09683,0.0122385,0.0486111
288.564,0.0,0.0,4.09818,0.0122385,0.0486111
289.564,0.0,0.0,4.09575,0.0122385,0.0486111
290.564,0.0,0.0,4.09593,0.0122385,0.0486111
291.564,0.0,0.0,4.09466,0.0122385,0.0486111
292.564,0.0,0.0,4.09556,0.0122385,0.0486111
293.564,0.0,0.0,4.09469,0.0122385,0.0486111
294.564,0.0,0.0,4.09561,0.0122385,0.0486111
295.564,0.0,0.0,4.09603,0.0122385,0.0486111
296.564,0.0,0.0,4.09465,0.0122385,0.0486111
297.564,0.0,0.0,4.09561,0.0122385,0.0486111
298.564,0.0,0.0,4.09757,0.0122385,0.0486111
299.564,0.0,0.0,4.09521,0.0122385,0.0486111
300.564,0.0,0.0,4.09733,0.0122385,0.0486111
301.564,0.0,0.0,4.09605,0.0122385,0.0486111
302.564,0.0,0.0,4.09791,0.0122385,0.0486111
303.564,0.0,0.0,4.09609,0.0122385,0.0486111
304.564,0.0,0.0,4.09656,0.0122385,0.0486111
305.564,0.0,0.0,4.0973,0.0122385,0.0486111
306.564,0.0,0.0,4.09687,0.0122385,0.0486111
307.564,0.0,0.0,4.09581,0.0122385,0.0486111
308.564,0.0,0.0,4.0962,0.0122385,0.0486111
309.564,0.0,0.0,4.09683,0.0122385,0.0486111
310.564,0.0,0.0,4.09814,0.0122385,0.0486111
311.564,0.0,0.0,4.09649,0.0122385,0.0486111
312.564,0.0,0.0,4.09592,0.0122385,0.0486111
313.564,0.0,0.0,4.09559,0.0122385,0.0486111
314.564,0.0,0.0,4.09635,0.0122385,0.0486111
315.564,0.0,0.0,4.09608,0.0122385,0.0486111
316.564,0.0,0.0,4.09433,0.0122385,0.0486111
317.564,0.0,0.0,4.09744,0.0122385,0.0486111
318.564,0.0,0.0,4.09684,0.0122385,0.0486111
319.564,0.0,0.0,4.09434,0.0122385,0.0486111
320.564,0.0,0.0,4.09535,0.0122385,0.0486111
321.564,0.0,0.0,4.09533,0.0122385,0.0486111
322.564,0.0,0.0,4.09797,0.0122385,0.0486111
323.564,0.0,0.0,4.09586,0.0122385,0.0486111
324.564,0.0,0.0,4.09505,0.0122385,0.0486111
325.564,0.0,0.0,4.09573,0.0122385,0.0486111
326.564,0.0,0.0,4.09626,0.0122385,0.0486111
327.564,0.0,0.0,4.09433,0.0122385,0.0486111
328.564,0.0,0.0,4.09519,0.0122385,0.0486111
329.564,0.0,0.0,4.09635,0.0122385,0.0486111
330.564,0.0,0.0,4.09728,0.0122385,0.0486111
331.564,0.0,0.0,4.09489,0.0122385,0.0486111
332.564,0.0,0.0,4.0948,0.0122385,0.0486111
333.564,0.0,0.0,4.09594,0.0122385,0.0486111
334.564,0.0,0.0,4.09519,0.0122385,0.0486111
335.564,0.0,0.0,4.0962,0.0122385,0.0486111
336.564,0.0,0.0,4.09469,0.0122385,0.0486111
337.564,0.0,0.0,4.09654,0.0122385,0.0486111
338.564,0.0,0.0,4.09616,0.0122385,0.0486111
339.564,0.0,0.0,4.09645,0.0122385,0.0486111
340.564,0.0,0.0,4.09595,0.0122385,0.0486111
341.564,0.0,0.0,4.09637,0.0122385,0.0486111
342.564,0.0,0.0,4.09621,0.0122385,0.0486111
343.564,0.0,0.0,4.09731,0.0122385,0.0486111
344.564,0.0,0.0,4.09507,0.0122385,0.0486111
345.564,0.0,0.0,4.09547,0.0122385,0.0486111
346.564,0.0,0.0,4.09627,0.0122385,0.0486111
347.564,0.0,0.0,4.09592,0.0122385,0.0486111
348.564,0.0,0.0,4.0976,0.0122385,0.0486111
349.564,0.0,0.0,4.09721,0.0122385,0.0486111
350.564,0.0,0.0,4.09442,0.0122385,0.0486111
351.564,0.0,0.0,4.09523,0.0122385,0.0486111
352.564,0.0,0.0,4.09604,0.0122385,0.0486111
353.564,0.0,0.0,4.09516,0.0122385,0.0486111
354.564,0.0,0.0,4.0952,0.0122385,0.0486111
355.564,0.0,0.0,4.09813,0.0122385,0.0486111
356.564,0.0,0.0,4.09639,0.0122385,0.0486111
357.564,0.0,0.0,4.09476,0.0122385,0.0486111
358.564,0.0,0.0,4.09522,0.0122385,0.0486111
359.564,0.0,0.0,4.09719,0.0122385,0.0486111
360.564,0.0,0.0,4.09573,0.0122385,0.0486111
361.564,0.0,0.0,4.09475,0.0122385,0.0486111
362.564,0.0,0.0,4.09624,0.0122385,0.0486111
363.564,0.0,0.0,4.09885,0.0122385,0.0486111
364.564,0.0,0.0,4.09509,0.0122385,0.0486111
365.564,0.0,0.0,4.0973,0.0122385,0.0486111
366.564,0.0,0.0,4.09453,0.0122385,0.0486111
367.564,0.0,0.0,4.09599,0.0122385,0.0486111
368.564,0.0,0.0,4.09661,0.0122385,0.0486111
369.564,0.0,0.0,4.09605,0.0122385,0.0486111
370.0,0.0,0.0,4.0966,0.0122385,0.0486111