File: output/use_case_2_2.0E.csv
Time [s],Current [A],Power [W],Voltage [V],Capacity [Ah],Energy [Wh]
0.0,0.0,0.0,4.09697,0.0,0.0
0.06,0.0,0.0,4.09666,0.0,0.0
0.12,0.0,0.0,4.09623,0.0,0.0
0.24,0.0,0.0,4.09827,0.0,0.0
0.48,0.0,0.0,4.09581,0.0,0.0
0.96,0.0,0.0,4.0953,0.0,0.0
1.92,0.0,0.0,4.0961,0.0,0.0
2.92,0.0,0.0,4.09608,0.0,0.0
3.92,0.0,0.0,4.09587,0.0,0.0
4.92,0.0,0.0,4.09549,0.0,0.0
5.92,0.0,0.0,4.0958,0.0,0.0
6.92,0.0,0.0,4.09766,0.0,0.0
7.92,0.0,0.0,4.09786,0.0,0.0
8.92,0.0,0.0,4.09679,0.0,0.0
9.92,0.0,0.0,4.09667,0.0,0.0
10.92,0.0,0.0,4.0973,0.0,0.0
11.92,0.0,0.0,4.09762,0.0,0.0
12.92,0.0,0.0,4.09718,0.0,0.0
13.92,0.0,0.0,4.09798,0.0,0.0
14.92,0.0,0.0,4.09704,0.0,0.0
15.92,0.0,0.0,4.09704,0.0,0.0
16.92,0.0,0.0,4.09734,0.0,0.0
17.92,0.0,0.0,4.09644,0.0,0.0
18.92,0.0,0.0,4.09662,0.0,0.0
19.92,0.0,0.0,4.09861,0.0,0.0
20.92,0.0,0.0,4.09691,0.0,0.0
21.92,0.0,0.0,4.09745,0.0,0.0
22.92,0.0,0.0,4.09762,0.0,0.0
23.92,0.0,0.0,4.09577,0.0,0.0
24.92,0.0,0.0,4.09659,0.0,0.0
25.92,0.0,0.0,4.09731,0.0,0.0
26.92,0.0,0.0,4.09866,0.0,0.0
27.92,0.0,0.0,4.09626,0.0,0.0
28.92,0.0,0.0,4.0963,0.0,0.0
29.92,0.0,0.0,4.09734,0.0,0.0
30.92,0.0,0.0,4.09548,0.0,0.0
31.92,0.0,0.0,4.09592,0.0,0.0
32.92,0.0,0.0,4.09671,0.0,0.0
33.92,0.0,0.0,4.09783,0.0,0.0
34.92,0.0,0.0,4.09579,0.0,0.0
35.92,0.0,0.0,4.09672,0.0,0.0
36.92,0.0,0.0,4.09443,0.0,0.0
37.92,0.0,0.0,4.09747,0.0,0.0
38.92,0.0,0.0,4.09796,0.0,0.0
39.92,0.0,0.0,4.09703,0.0,0.0
40.92,0.0,0.0,4.09678,0.0,0.0
41.92,0.0,0.0,4.09676,0.0,0.0
42.92,0.0,0.0,4.09723,0.0,0.0
43.92,0.0,0.0,4.09639,0.0,0.0
44.92,0.0,0.0,4.09586,0.0,0.0
45.92,0.0,0.0,4.09632,0.0,0.0
46.92,0.0,0.0,4.09635,0.0,0.0
47.92,0.0,0.0,4.09483,0.0,0.0
48.92,0.0,0.0,4.0972,0.0,0.0
49.92,0.0,0.0,4.09526,0.0,0.0
50.92,0.0,0.0,4.09727,0.0,0.0
51.92,0.0,0.0,4.09472,0.0,0.0
52.92,0.0,0.0,4.09694,0.0,0.0
53.92,0.0,0.0,4.09769,0.0,0.0
54.92,0.0,0.0,4.09645,0.0,0.0
55.92,0.0,0.0,4.09775,0.0,0.0
56.92,0.0,0.0,4.09702,0.0,0.0
57.92,0.0,0.0,4.09582,0.0,0.0
58.92,0.0,0.0,4.09735,0.0,0.0
59.92,0.0,0.0,4.09659,0.0,0.0
60.0,0.0,0.0,4.09612,0.0,0.0
60,8.95855,35.01,3.90762,1.76818e-17,6.91003e-17
60.0039,8.95857,35.01,3.90893,9.744e-06,3.80794e-05
60.0078,8.95859,35.01,3.90805,1.9488e-05,7.61589e-05
60.0157,8.95864,35.01,3.90724,3.89762e-05,0.000152318
60.0313,8.95872,35.01,3.90636,7.79528e-05,0.000304636
60.0626,8.95888,35.01,3.90902,0.000155908,0.000609271
60.1253,8.95921,35.01,3.90718,0.000311823,0.00121854
60.1879,8.95954,35.01,3.90722,0.000467743,0.00182781
60.3132,8.96018,35.01,3.90597,0.000779607,0.00304636
60.4385,8.96082,35.01,3.90454,0.00109149,0.0042649
60.5638,8.96145,35.01,3.90571,0.0014034,0.00548344
60.8144,8.96271,35.01,3.90818,0.00202731,0.00792052
61.065,8.96396,35.01,3.90555,0.0026513,0.0103576
61.5662,8.96641,35.01,3.90378,0.00389962,0.0152318
62.0674,8.96884,35.01,3.9023,0.00514828,0.0201059
62.5686,8.97126,35.01,3.90247,0.00639728,0.0249801
63.0698,8.97367,35.01,3.9022,0.00764661,0.0298543
63.571,8.97608,35.01,3.90168,0.00889628,0.0347285
64.0722,8.97849,35.01,3.89912,0.0101463,0.0396026
65.0722,8.98336,35.01,3.89707,0.0126417,0.0493276
66.0722,8.98829,35.01,3.89536,0.0151384,0.0590526
67.0722,8.9933,35.01,3.89165,0.0176365,0.0687776
68.0722,8.99839,35.01,3.8908,0.0201361,0.0785026
69.0722,9.00354,35.01,3.88867,0.0226371,0.0882276
70.0,9.00839,35.01,3.88439,0.0249586,0.09725
70,0.0,0.0,4.07032,0.0249586,0.09725
70.0147,0.0,0.0,4.07108,0.0249586,0.09725
70.0294,0.0,0.0,4.07155,0.0249586,0.09725
70.0589,0.0,0.0,4.07038,0.0249586,0.09725
70.1178,0.0,0.0,4.07006,0.0249586,0.09725
70.1767,0.0,0.0,4.07088,0.0249586,0.09725
70.2356,0.0,0.0,4.07281,0.0249586,0.09725
70.2945,0.0,0.0,4.06957,0.0249586,0.09725
70.4122,0.0,0.0,4.07086,0.0249586,0.09725
70.53,0.0,0.0,4.07243,0.0249586,0.09725
70.6478,0.0,0.0,4.07173,0.0249586,0.09725
70.8834,0.0,0.0,4.07133,0.0249586,0.09725
71.1189,0.0,0.0,4.07343,0.0249586,0.09725
71.5901,0.0,0.0,4.07275,0.0249586,0.09725
72.0026,0.0,0.0,4.07481,0.0249586,0.09725
72.4152,0.0,0.0,4.07454,0.0249586,0.09725
72.8278,0.0,0.0,4.07598,0.0249586,0.09725
73.2403,0.0,0.0,4.07643,0.0249586,0.09725
73.6529,0.0,0.0,4.07594,0.0249586,0.09725
74.0655,0.0,0.0,4.07819,0.0249586,0.09725
74.8906,0.0,0.0,4.07614,0.0249586,0.09725
75.7158,0.0,0.0,4.0782,0.0249586,0.09725
76.5409,0.0,0.0,4.0785,0.0249586,0.09725
77.3661,0.0,0.0,4.08053,0.0249586,0.09725
78.1912,0.0,0.0,4.07828,0.0249586,0.09725
79.0163,0.0,0.0,4.07963,0.0249586,0.09725
79.8415,0.0,0.0,4.08162,0.0249586,0.09725
80.6666,0.0,0.0,4.08003,0.0249586,0.09725
81.4918,0.0,0.0,4.08126,0.0249586,0.09725
82.3169,0.0,0.0,4.08142,0.0249586,0.09725
83.3169,0.0,0.0,4.08137,0.0249586,0.09725
84.3169,0.0,0.0,4.08349,0.0249586,0.09725
85.3169,0.0,0.0,4.0832,0.0249586,0.09725
86.3169,0.0,0.0,4.08489,0.0249586,0.09725
87.3169,0.0,0.0,4.08481,0.0249586,0.09725
88.3169,0.0,0.0,4.08317,0.0249586,0.09725
89.3169,0.0,0.0,4.08496,0.0249586,0.09725
90.3169,0.0,0.0,4.08464,0.0249586,0.09725
91.3169,0.0,0.0,4.08566,0.0249586,0.09725
92.3169,0.0,0.0,4.0853,0.0249586,0.09725
93.3169,0.0,0.0,4.08692,0.0249586,0.09725
94.3169,0.0,0.0,4.08596,0.0249586,0.09725
95.3169,0.0,0.0,4.08875,0.0249586,0.09725
96.3169,0.0,0.0,4.08716,0.0249586,0.09725
97.3169,0.0,0.0,4.08875,0.0249586,0.09725
98.3169,0.0,0.0,4.08784,0.0249586,0.09725
99.3169,0.0,0.0,4.08955,0.0249586,0.09725
100.317,0.0,0.0,4.08858,0.0249586,0.09725
101.317,0.0,0.0,4.08812,0.0249586,0.09725
102.317,0.0,0.0,4.08691,0.0249586,0.09725
103.317,0.0,0.0,4.09025,0.0249586,0.09725
104.317,0.0,0.0,4.09063,0.0249586,0.09725
105.317,0.0,0.0,4.08907,0.0249586,0.09725
106.317,0.0,0.0,4.09049,0.0249586,0.09725
107.317,0.0,0.0,4.08835,0.0249586,0.09725
108.317,0.0,0.0,4.08923,0.0249586,0.09725
109.317,0.0,0.0,4.09093,0.0249586,0.09725
110.317,0.0,0.0,4.09039,0.0249586,0.09725
111.317,0.0,0.0,4.09034,0.0249586,0.09725
112.317,0.0,0.0,4.09093,0.0249586,0.09725
113.317,0.0,0.0,4.08929,0.0249586,0.09725
114.317,0.0,0.0,4.09063,0.0249586,0.09725
115.317,0.0,0.0,4.08945,0.0249586,0.09725
116.317,0.0,0.0,4.09054,0.0249586,0.09725
117.317,0.0,0.0,4.08973,0.0249586,0.09725
118.317,0.0,0.0,4.08957,0.0249586,0.09725
119.317,0.0,0.0,4.09006,0.0249586,0.09725
120.317,0.0,0.0,4.09378,0.0249586,0.09725
121.317,0.0,0.0,4.09185,0.0249586,0.09725
122.317,0.0,0.0,4.09124,0.0249586,0.09725
123.317,0.0,0.0,4.09249,0.0249586,0.09725
124.317,0.0,0.0,4.0931,0.0249586,0.09725
125.317,0.0,0.0,4.09048,0.0249586,0.09725
126.317,0.0,0.0,4.0918,0.0249586,0.09725
127.317,0.0,0.0,4.09233,0.0249586,0.09725
128.317,0.0,0.0,4.09253,0.0249586,0.09725
129.317,0.0,0.0,4.09198,0.0249586,0.09725
130.317,0.0,0.0,4.09137,0.0249586,0.09725
131.317,0.0,0.0,4.09332,0.0249586,0.09725
132.317,0.0,0.0,4.09286,0.0249586,0.09725
133.317,0.0,0.0,4.09116,0.0249586,0.09725
134.317,0.0,0.0,4.09336,0.0249586,0.09725
135.317,0.0,0.0,4.09313,0.0249586,0.09725
136.317,0.0,0.0,4.09115,0.0249586,0.09725
137.317,0.0,0.0,4.09039,0.0249586,0.09725
138.317,0.0,0.0,4.09568,0.0249586,0.09725
139.317,0.0,0.0,4.09321,0.0249586,0.09725
140.317,0.0,0.0,4.09336,0.0249586,0.09725
141.317,0.0,0.0,4.09347,0.0249586,0.09725
142.317,0.0,0.0,4.09486,0.0249586,0.09725
143.317,0.0,0.0,4.09203,0.0249586,0.09725
144.317,0.0,0.0,4.09238,0.0249586,0.09725
145.317,0.0,0.0,4.09284,0.0249586,0.09725
146.317,0.0,0.0,4.09387,0.0249586,0.09725
147.317,0.0,0.0,4.09199,0.0249586,0.09725
148.317,0.0,0.0,4.0926,0.0249586,0.09725
149.317,0.0,0.0,4.09359,0.0249586,0.09725
150.317,0.0,0.0,4.09357,0.0249586,0.09725
151.317,0.0,0.0,4.09248,0.0249586,0.09725
152.317,0.0,0.0,4.09237,0.0249586,0.09725
153.317,0.0,0.0,4.09238,0.0249586,0.09725
154.317,0.0,0.0,4.09278,0.0249586,0.09725
155.317,0.0,0.0,4.09365,0.0249586,0.09725
156.317,0.0,0.0,4.09339,0.0249586,0.09725
157.317,0.0,0.0,4.09344,0.0249586,0.09725
158.317,0.0,0.0,4.09385,0.0249586,0.09725
159.317,0.0,0.0,4.09312,0.0249586,0.09725
160.317,0.0,0.0,4.0926,0.0249586,0.09725
161.317,0.0,0.0,4.0944,0.0249586,0.09725
162.317,0.0,0.0,4.09469,0.0249586,0.09725
163.317,0.0,0.0,4.09473,0.0249586,0.09725
164.317,0.0,0.0,4.09358,0.0249586,0.09725
165.317,0.0,0.0,4.09367,0.0249586,0.09725
166.317,0.0,0.0,4.09187,0.0249586,0.09725
167.317,0.0,0.0,4.09413,0.0249586,0.09725
168.317,0.0,0.0,4.09224,0.0249586,0.09725
169.317,0.0,0.0,4.09515,0.0249586,0.09725
170.317,0.0,0.0,4.09534,0.0249586,0.09725
171.317,0.0,0.0,4.09353,0.0249586,0.09725
172.317,0.0,0.0,4.09375,0.0249586,0.09725
173.317,0.0,0.0,4.0931,0.0249586,0.09725
174.317,0.0,0.0,4.09349,0.0249586,0.09725
175.317,0.0,0.0,4.09352,0.0249586,0.09725
176.317,0.0,0.0,4.09285,0.0249586,0.09725
177.317,0.0,0.0,4.09552,0.0249586,0.09725
178.317,0.0,0.0,4.09562,0.0249586,0.09725
179.317,0.0,0.0,4.09249,0.0249586,0.09725
180.317,0.0,0.0,4.09332,0.0249586,0.09725
181.317,0.0,0.0,4.09707,0.0249586,0.09725
182.317,0.0,0.0,4.09364,0.0249586,0.09725
183.317,0.0,0.0,4.09395,0.0249586,0.09725
184.317,0.0,0.0,4.09481,0.0249586,0.09725
185.317,0.0,0.0,4.09486,0.0249586,0.09725
186.317,0.0,0.0,4.09452,0.0249586,0.09725
187.317,0.0,0.0,4.09351,0.0249586,0.09725
188.317,0.0,0.0,4.09526,0.0249586,0.09725
189.317,0.0,0.0,4.09498,0.0249586,0.09725
190.317,0.0,0.0,4.09659,0.0249586,0.09725
191.317,0.0,0.0,4.094,0.0249586,0.09725
192.317,0.0,0.0,4.09257,0.0249586,0.09725
193.317,0.0,0.0,4.09466,0.0249586,0.09725
194.317,0.0,0.0,4.09474,0.0249586,0.09725
195.317,0.0,0.0,4.0929,0.0249586,0.09725
196.317,0.0,0.0,4.09314,0.0249586,0.09725
197.317,0.0,0.0,4.09431,0.0249586,0.09725
198.317,0.0,0.0,4.09293,0.0249586,0.09725
199.317,0.0,0.0,4.09268,0.0249586,0.09725
200.317,0.0,0.0,4.09329,0.0249586,0.09725
201.317,0.0,0.0,4.09384,0.0249586,0.09725
202.317,0.0,0.0,4.09359,0.0249586,0.09725
203.317,0.0,0.0,4.09289,0.0249586,0.09725
204.317,0.0,0.0,4.0936,0.0249586,0.09725
205.317,0.0,0.0,4.09386,0.0249586,0.09725
206.317,0.0,0.0,4.09329,0.0249586,0.09725
207.317,0.0,0.0,4.09252,0.0249586,0.09725
208.317,0.0,0.0,4.09428,0.0249586,0.09725
209.317,0.0,0.0,4.09543,0.0249586,0.09725
210.317,0.0,0.0,4.09617,0.0249586,0.09725
211.317,0.0,0.0,4.09454,0.0249586,0.09725
212.317,0.0,0.0,4.09455,0.0249586,0.09725
213.317,0.0,0.0,4.09632,0.0249586,0.09725
214.317,0.0,0.0,4.09406,0.0249586,0.09725
215.317,0.0,0.0,4.09619,0.0249586,0.09725
216.317,0.0,0.0,4.09459,0.0249586,0.09725
217.317,0.0,0.0,4.09482,0.0249586,0.09725
218.317,0.0,0.0,4.09426,0.0249586,0.09725
219.317,0.0,0.0,4.09722,0.0249586,0.09725
220.317,0.0,0.0,4.09375,0.0249586,0.09725
221.317,0.0,0.0,4.09698,0.0249586,0.09725
222.317,0.0,0.0,4.09526,0.0249586,0.09725
223.317,0.0,0.0,4.09554,0.0249586,0.09725
224.317,0.0,0.0,4.09459,0.0249586,0.09725
225.317,0.0,0.0,4.09505,0.0249586,0.09725
226.317,0.0,0.0,4.09427,0.0249586,0.09725
227.317,0.0,0.0,4.09356,0.0249586,0.09725
228.317,0.0,0.0,4.09561,0.0249586,0.09725
229.317,0.0,0.0,4.09582,0.0249586,0.09725
230.317,0.0,0.0,4.09531,0.0249586,0.09725
231.317,0.0,0.0,4.09487,0.0249586,0.09725
232.317,0.0,0.0,4.09427,0.0249586,0.09725
233.317,0.0,0.0,4.09348,0.0249586,0.09725
234.317,0.0,0.0,4.09475,0.0249586,0.09725
235.317,0.0,0.0,4.09245,0.0249586,0.09725
236.317,0.0,0.0,4.09456,0.0249586,0.09725
237.317,0.0,0.0,4.09654,0.0249586,0.09725
238.317,0.0,0.0,4.09384,0.0249586,0.09725
239.317,0.0,0.0,4.09492,0.0249586,0.09725
240.317,0.0,0.0,4.09574,0.0249586,0.09725
241.317,0.0,0.0,4.09429,0.0249586,0.09725
242.317,0.0,0.0,4.09533,0.0249586,0.09725
243.317,0.0,0.0,4.09568,0.0249586,0.09725
244.317,0.0,0.0,4.09601,0.0249586,0.09725
245.317,0.0,0.0,4.0948,0.0249586,0.09725
246.317,0.0,0.0,4.09653,0.0249586,0.09725
247.317,0.0,0.0,4.09434,0.0249586,0.09725
248.317,0.0,0.0,4.09567,0.0249586,0.09725
249.317,0.0,0.0,4.09525,0.0249586,0.09725
250.317,0.0,0.0,4.09495,0.0249586,0.09725
251.317,0.0,0.0,4.09343,0.0249586,0.09725
252.317,0.0,0.0,4.09564,0.0249586,0.09725
253.317,0.0,0.0,4.09488,0.0249586,0.09725
254.317,0.0,0.0,4.0958,0.0249586,0.09725
255.317,0.0,0.0,4.09669,0.0249586,0.09725
256.317,0.0,0.0,4.09385,0.0249586,0.09725
257.317,0.0,0.0,4.0936,0.0249586,0.09725
258.317,0.0,0.0,4.09457,0.0249586,0.09725
259.317,0.0,0.0,4.09467,0.0249586,0.09725
260.317,0.0,0.0,4.09327,0.0249586,0.09725
261.317,0.0,0.0,4.09658,0.0249586,0.09725
262.317,0.0,0.0,4.09459,0.0249586,0.09725
263.317,0.0,0.0,4.09673,0.0249586,0.09725
264.317,0.0,0.0,4.09517,0.0249586,0.09725
265.317,0.0,0.0,4.09654,0.0249586,0.09725
266.317,0.0,0.0,4.09568,0.0249586,0.09725
267.317,0.0,0.0,4.096,0.0249586,0.09725
268.317,0.0,0.0,4.09486,0.0249586,0.09725
269.317,0.0,0.0,4.09499,0.0249586,0.09725
270.317,0.0,0.0,4.09473,0.0249586,0.09725
271.317,0.0,0.0,4.09495,0.0249586,0.09725
272.317,0.0,0.0,4.09305,0.0249586,0.09725
273.317,0.0,0.0,4.09437,0.0249586,0.09725
274.317,0.0,0.0,4.09514,0.0249586,0.09725
275.317,0.0,0.0,4.09453,0.0249586,0.09725
276.317,0.0,0.0,4.09529,0.0249586,0.09725
277.317,0.0,0.0,4.09555,0.0249586,0.09725
278.317,0.0,0.0,4.09455,0.0249586,0.09725
279.317,0.0,0.0,4.09514,0.0249586,0.09725
280.317,0.0,0.0,4.0969,0.0249586,0.09725
281.317,0.0,0.0,4.09592,0.0249586,0.09725
282.317,0.0,0.0,4.09537,0.0249586,0.09725
283.317,0.0,0.0,4.09389,0.0249586,0.09725
284.317,0.0,0.0,4.09489,0.0249586,0.09725
285.317,0.0,0.0,4.09606,0.0249586,0.09725
286.317,0.0,0.0,4.0958,0.0249586,0.09725
287.317,0.0,0.0,4.09477,0.0249586,0.09725
288.317,0.0,0.0,4.09527,0.0249586,0.09725
289.317,0.0,0.0,4.0967,0.0249586,0.09725
290.317,0.0,0.0,4.09541,0.0249586,0.09725
291.317,0.0,0.0,4.09444,0.0249586,0.09725
292.317,0.0,0.0,4.09716,0.0249586,0.09725
293.317,0.0,0.0,4.09415,0.0249586,0.09725
294.317,0.0,0.0,4.09382,0.0249586,0.09725
295.317,0.0,0.0,4.09563,0.0249586,0.09725
296.317,0.0,0.0,4.0949,0.0249586,0.09725
297.317,0.0,0.0,4.09476,0.0249586,0.09725
298.317,0.0,0.0,4.09292,0.0249586,0.09725
299.317,0.0,0.0,4.09673,0.0249586,0.09725
300.317,0.0,0.0,4.09448,0.0249586,0.09725
301.317,0.0,0.0,4.09581,0.0249586,0.09725
302.317,0.0,0.0,4.09444,0.0249586,0.09725
303.317,0.0,0.0,4.09474,0.0249586,0.09725
304.317,0.0,0.0,4.09474,0.0249586,0.09725
305.317,0.0,0.0,4.09424,0.0249586,0.09725
306.317,0.0,0.0,4.09594,0.0249586,0.09725
307.317,0.0,0.0,4.09475,0.0249586,0.09725
308.317,0.0,0.0,4.09484,0.0249586,0.09725
309.317,0.0,0.0,4.09388,0.0249586,0.09725
310.317,0.0,0.0,4.09379,0.0249586,0.09725
311.317,0.0,0.0,4.09455,0.0249586,0.09725
312.317,0.0,0.0,4.09624,0.0249586,0.09725
313.317,0.0,0.0,4.09436,0.0249586,0.09725
314.317,0.0,0.0,4.09532,0.0249586,0.09725
315.317,0.0,0.0,4.09462,0.0249586,0.09725
316.317,0.0,0.0,4.09665,0.0249586,0.09725
317.317,0.0,0.0,4.09589,0.0249586,0.09725
318.317,0.0,0.0,4.09502,0.0249586,0.09725
319.317,0.0,0.0,4.09583,0.0249586,0.09725
320.317,0.0,0.0,4.09387,0.0249586,0.09725
321.317,0.0,0.0,4.09563,0.0249586,0.09725
322.317,0.0,0.0,4.09587,0.0249586,0.09725
323.317,0.0,0.0,4.09499,0.0249586,0.09725
324.317,0.0,0.0,4.09477,0.0249586,0.09725
325.317,0.0,0.0,4.09508,0.0249586,0.09725
326.317,0.0,0.0,4.09685,0.0249586,0.09725
327.317,0.0,0.0,4.09453,0.0249586,0.09725
328.317,0.0,0.0,4.09503,0.0249586,0.09725
329.317,0.0,0.0,4.09448,0.0249586,0.09725
330.317,0.0,0.0,4.09753,0.0249586,0.09725
331.317,0.0,0.0,4.09603,0.0249586,0.09725
332.317,0.0,0.0,4.09581,0.0249586,0.09725
333.317,0.0,0.0,4.09434,0.0249586,0.09725
334.317,0.0,0.0,4.09486,0.0249586,0.09725
335.317,0.0,0.0,4.09609,0.0249586,0.09725
336.317,0.0,0.0,4.09583,0.0249586,0.09725
337.317,0.0,0.0,4.09627,0.0249586,0.09725
338.317,0.0,0.0,4.09566,0.0249586,0.09725
339.317,0.0,0.0,4.09431,0.0249586,0.09725
340.317,0.0,0.0,4.09434,0.0249586,0.09725
341.317,0.0,0.0,4.09518,0.0249586,0.09725
342.317,0.0,0.0,4.09643,0.0249586,0.09725
343.317,0.0,0.0,4.09632,0.0249586,0.09725
344.317,0.0,0.0,4.09384,0.0249586,0.09725
345.317,0.0,0.0,4.096,0.0249586,0.09725
346.317,0.0,0.0,4.09416,0.0249586,0.09725
347.317,0.0,0.0,4.09407,0.0249586,0.09725
348.317,0.0,0.0,4.09372,0.0249586,0.09725
349.317,0.0,0.0,4.09634,0.0249586,0.09725
350.317,0.0,0.0,4.09572,0.0249586,0.09725
351.317,0.0,0.0,4.0946,0.0249586,0.09725
352.317,0.0,0.0,4.09439,0.0249586,0.09725
353.317,0.0,0.0,4.09439,0.0249586,0.09725
354.317,0.0,0.0,4.09674,0.0249586,0.09725
355.317,0.0,0.0,4.09537,0.0249586,0.09725
356.317,0.0,0.0,4.09405,0.0249586,0.09725
357.317,0.0,0.0,4.09324,0.0249586,0.09725
358.317,0.0,0.0,4.09605,0.0249586,0.09725
359.317,0.0,0.0,4.09544,0.0249586,0.09725
360.317,0.0,0.0,4.0955,0.0249586,0.09725
361.317,0.0,0.0,4.09553,0.0249586,0.09725
362.317,0.0,0.0,4.09409,0.0249586,0.09725
363.317,0.0,0.0,4.09488,0.0249586,0.09725
364.317,0.0,0.0,4.09563,0.0249586,0.09725
365.317,0.0,0.0,4.09573,0.0249586,0.09725
366.317,0.0,0.0,4.09501,0.0249586,0.09725
367.317,0.0,0.0,4.09421,0.0249586,0.09725
368.317,0.0,0.0,4.09503,0.0249586,0.09725
369.317,0.0,0.0,4.09506,0.0249586,0.09725
370.0,0.0,0.0,4.09658,0.0249586,0.09725