File: output/use_case_1_1.0E.csv
Time [s],Current [A],Power [W],Voltage [V],Capacity [Ah],Energy [Wh]
0.0,4.30255,17.5,4.0656,0.0,0.0
0.0652558,4.30289,17.5,4.06767,7.79948e-05,0.000317216
0.652558,4.30586,17.5,4.06404,0.000780284,0.00317216
2.2187,4.31333,17.5,4.05768,0.00265559,0.0107853
6.2187,4.32953,17.5,4.04217,0.00745977,0.0302298
10.2187,4.34244,17.5,4.02951,0.0122796,0.0496742
14.2187,4.35307,17.5,4.02087,0.017112,0.0691187
18.2187,4.36205,17.5,4.00794,0.0219551,0.0885631
22.2187,4.36976,17.5,4.00474,0.0268073,0.108008
26.2187,4.37649,17.5,3.99924,0.0316674,0.127452
30.2187,4.38241,17.5,3.99385,0.0365343,0.146896
34.2187,4.38765,17.5,3.98872,0.0414073,0.166341
38.2187,4.39231,17.5,3.98343,0.0462858,0.185785
42.2187,4.39647,17.5,3.98036,0.0511691,0.20523
46.2187,4.4002,17.5,3.97714,0.0560567,0.224674
50.2187,4.40354,17.5,3.97603,0.0609481,0.244119
54.2187,4.40654,17.5,3.97227,0.065843,0.263563
58.2187,4.40923,17.5,3.96901,0.0707411,0.283008
62.2187,4.41165,17.5,3.96597,0.0756419,0.302452
66.2187,4.41382,17.5,3.96447,0.0805453,0.321896
70.2187,4.41578,17.5,3.96255,0.0854509,0.341341
74.2187,4.41753,17.5,3.96107,0.0903586,0.360785
78.2187,4.4191,17.5,3.95935,0.095268,0.38023
82.2187,4.42051,17.5,3.95919,0.100179,0.399674
86.2187,4.42178,17.5,3.95715,0.105092,0.419119
90.2187,4.42291,17.5,3.95526,0.110006,0.438563
94.2187,4.42393,17.5,3.95514,0.114921,0.458008
98.2187,4.42485,17.5,3.95323,0.119837,0.477452
102.219,4.42567,17.5,3.95295,0.124754,0.496896
106.219,4.42641,17.5,3.95429,0.129672,0.516341
110.219,4.42709,17.5,3.95413,0.134591,0.535785
114.219,4.42771,17.5,3.95309,0.13951,0.55523
118.219,4.42827,17.5,3.95228,0.14443,0.574674
122.219,4.42879,17.5,3.95004,0.149351,0.594119
126.219,4.42928,17.5,3.95191,0.154272,0.613563
130.219,4.42973,17.5,3.95136,0.159194,0.633008
134.219,4.43016,17.5,3.95064,0.164116,0.652452
138.219,4.43057,17.5,3.95019,0.169039,0.671896
142.219,4.43096,17.5,3.95007,0.173962,0.691341
146.219,4.43133,17.5,3.94817,0.178885,0.710785
150.219,4.4317,17.5,3.94891,0.183809,0.73023
154.219,4.43205,17.5,3.94969,0.188734,0.749674
158.219,4.43239,17.5,3.94673,0.193658,0.769119
162.219,4.43273,17.5,3.94979,0.198583,0.788563
166.219,4.43307,17.5,3.94654,0.203509,0.808008
170.219,4.4334,17.5,3.94772,0.208435,0.827452
174.219,4.43374,17.5,3.94741,0.213361,0.846896
178.219,4.43407,17.5,3.94585,0.218288,0.866341
182.219,4.4344,17.5,3.94791,0.223215,0.885785
186.219,4.43474,17.5,3.94645,0.228142,0.90523
190.219,4.43509,17.5,3.94579,0.23307,0.924674
194.219,4.43543,17.5,3.94671,0.237998,0.944119
198.219,4.43579,17.5,3.94355,0.242926,0.963563
202.219,4.43616,17.5,3.94402,0.247855,0.983008
206.219,4.43653,17.5,3.94381,0.252784,1.00245
210.219,4.43691,17.5,3.94409,0.257714,1.0219
214.219,4.43731,17.5,3.94418,0.262644,1.04134
218.219,4.43772,17.5,3.94323,0.267575,1.06079
222.219,4.43814,17.5,3.94293,0.272506,1.08023
226.219,4.43857,17.5,3.9413,0.277438,1.09967
230.219,4.43902,17.5,3.94354,0.28237,1.11912
234.219,4.43948,17.5,3.94182,0.287302,1.13856
238.219,4.43996,17.5,3.94086,0.292235,1.15801
242.219,4.44046,17.5,3.9431,0.297169,1.17745
246.219,4.44098,17.5,3.94107,0.302103,1.1969
250.219,4.44151,17.5,3.94077,0.307038,1.21634
254.219,4.44206,17.5,3.93994,0.311973,1.23579
258.219,4.44263,17.5,3.9401,0.316909,1.25523
262.219,4.44322,17.5,3.93939,0.321846,1.27467
266.219,4.44383,17.5,3.93854,0.326783,1.29412
270.219,4.44446,17.5,3.93822,0.331721,1.31356
274.219,4.4451,17.5,3.93615,0.33666,1.33301
278.219,4.44577,17.5,3.93731,0.3416,1.35245
282.219,4.44646,17.5,3.93436,0.34654,1.3719
286.219,4.44716,17.5,3.9356,0.351481,1.39134
290.219,4.44789,17.5,3.93473,0.356423,1.41079
294.219,4.44863,17.5,3.93392,0.361365,1.43023
298.219,4.44939,17.5,3.9319,0.366309,1.44967
302.219,4.45018,17.5,3.93146,0.371253,1.46912
306.219,4.45098,17.5,3.9323,0.376198,1.48856
310.219,4.45179,17.5,3.92858,0.381144,1.50801
314.219,4.45263,17.5,3.93074,0.386091,1.52745
318.219,4.45349,17.5,3.9309,0.391039,1.5469
322.219,4.45436,17.5,3.92879,0.395988,1.56634
326.219,4.45525,17.5,3.9287,0.400938,1.58579
330.219,4.45615,17.5,3.9266,0.405889,1.60523
334.219,4.45707,17.5,3.92628,0.410841,1.62467
338.219,4.45801,17.5,3.92473,0.415794,1.64412
342.219,4.45896,17.5,3.92485,0.420748,1.66356
346.219,4.45993,17.5,3.92364,0.425703,1.68301
350.219,4.46091,17.5,3.9232,0.430659,1.70245
354.219,4.4619,17.5,3.92062,0.435616,1.7219
358.219,4.46291,17.5,3.92225,0.440575,1.74134
362.219,4.46393,17.5,3.9198,0.445534,1.76079
366.219,4.46497,17.5,3.91861,0.450495,1.78023
370.219,4.46602,17.5,3.91874,0.455457,1.79967
374.219,4.46707,17.5,3.91726,0.46042,1.81912
378.219,4.46814,17.5,3.91614,0.465384,1.83856
382.219,4.46922,17.5,3.91344,0.470349,1.85801
386.219,4.47031,17.5,3.91499,0.475316,1.87745
390.219,4.47141,17.5,3.9141,0.480284,1.8969
394.219,4.47252,17.5,3.91342,0.485253,1.91634
398.219,4.47364,17.5,3.9106,0.490223,1.93579
402.219,4.47477,17.5,3.90922,0.495194,1.95523
406.219,4.47591,17.5,3.90851,0.500167,1.97467
410.219,4.47705,17.5,3.90931,0.505141,1.99412
414.219,4.4782,17.5,3.90931,0.510116,2.01356
418.219,4.47936,17.5,3.90481,0.515093,2.03301
422.219,4.48052,17.5,3.90841,0.520071,2.05245
426.219,4.48169,17.5,3.90424,0.52505,2.0719
430.219,4.48287,17.5,3.90197,0.53003,2.09134
434.219,4.48405,17.5,3.90151,0.535012,2.11079
438.219,4.48524,17.5,3.90247,0.539995,2.13023
442.219,4.48643,17.5,3.90092,0.54498,2.14967
446.219,4.48763,17.5,3.89936,0.549966,2.16912
450.219,4.48883,17.5,3.90015,0.554953,2.18856
454.219,4.49003,17.5,3.89763,0.559941,2.20801
458.219,4.49124,17.5,3.89759,0.564931,2.22745
462.219,4.49245,17.5,3.89612,0.569922,2.2469
466.219,4.49366,17.5,3.89557,0.574914,2.26634
470.219,4.49488,17.5,3.89427,0.579908,2.28579
474.219,4.49609,17.5,3.89232,0.584903,2.30523
478.219,4.49731,17.5,3.89195,0.5899,2.32467
482.219,4.49853,17.5,3.89141,0.594898,2.34412
486.219,4.49975,17.5,3.88902,0.599897,2.36356
490.219,4.50098,17.5,3.88621,0.604897,2.38301
494.219,4.5022,17.5,3.8887,0.609899,2.40245
498.219,4.50343,17.5,3.8845,0.614903,2.4219
502.219,4.50465,17.5,3.88541,0.619907,2.44134
506.219,4.50588,17.5,3.88436,0.624913,2.46079
510.219,4.5071,17.5,3.8831,0.629921,2.48023
514.219,4.50832,17.5,3.88259,0.634929,2.49967
518.219,4.50955,17.5,3.88062,0.63994,2.51912
522.219,4.51077,17.5,3.87923,0.644951,2.53856
526.219,4.51199,17.5,3.87897,0.649964,2.55801
530.219,4.51321,17.5,3.87729,0.654978,2.57745
534.219,4.51443,17.5,3.8767,0.659994,2.5969
538.219,4.51565,17.5,3.87538,0.66501,2.61634
542.219,4.51687,17.5,3.8732,0.670029,2.63579
546.219,4.51808,17.5,3.87359,0.675048,2.65523
550.219,4.51929,17.5,3.8725,0.680069,2.67467
554.219,4.5205,17.5,3.8714,0.685091,2.69412
558.219,4.52171,17.5,3.86985,0.690115,2.71356
562.219,4.52292,17.5,3.87047,0.69514,2.73301
566.219,4.52412,17.5,3.86722,0.700166,2.75245
570.219,4.52532,17.5,3.86819,0.705194,2.7719
574.219,4.52652,17.5,3.86714,0.710223,2.79134
578.219,4.52772,17.5,3.86424,0.715253,2.81079
582.219,4.52891,17.5,3.86446,0.720285,2.83023
586.219,4.5301,17.5,3.86389,0.725318,2.84967
590.219,4.53129,17.5,3.86229,0.730352,2.86912
594.219,4.53247,17.5,3.86278,0.735388,2.88856
598.219,4.53365,17.5,3.86025,0.740425,2.90801
602.219,4.53483,17.5,3.86,0.745463,2.92745
606.219,4.536,17.5,3.85849,0.750502,2.9469
610.219,4.53717,17.5,3.85807,0.755543,2.96634
614.219,4.53834,17.5,3.85548,0.760585,2.98579
618.219,4.5395,17.5,3.85606,0.765629,3.00523
622.219,4.54066,17.5,3.85416,0.770673,3.02467
626.219,4.54181,17.5,3.8507,0.775719,3.04412
630.219,4.54297,17.5,3.85262,0.780767,3.06356
634.219,4.54411,17.5,3.8506,0.785815,3.08301
638.219,4.54526,17.5,3.85082,0.790865,3.10245
642.219,4.5464,17.5,3.85016,0.795916,3.1219
646.219,4.54754,17.5,3.84738,0.800968,3.14134
650.219,4.54867,17.5,3.84542,0.806022,3.16079
654.219,4.5498,17.5,3.84418,0.811077,3.18023
658.219,4.55093,17.5,3.8435,0.816133,3.19967
662.219,4.55205,17.5,3.84353,0.82119,3.21912
666.219,4.55317,17.5,3.84387,0.826249,3.23856
670.219,4.55428,17.5,3.84364,0.831309,3.25801
674.219,4.5554,17.5,3.84253,0.83637,3.27745
678.219,4.5565,17.5,3.84099,0.841432,3.2969
682.219,4.55761,17.5,3.83956,0.846496,3.31634
686.219,4.55871,17.5,3.83884,0.85156,3.33579
690.219,4.55981,17.5,3.83741,0.856626,3.35523
694.219,4.5609,17.5,3.83774,0.861694,3.37467
698.219,4.56199,17.5,3.83681,0.866762,3.39412
702.219,4.56308,17.5,3.83563,0.871832,3.41356
706.219,4.56416,17.5,3.83402,0.876903,3.43301
710.219,4.56524,17.5,3.8359,0.881975,3.45245
714.219,4.56632,17.5,3.83316,0.887048,3.4719
718.219,4.56739,17.5,3.83099,0.892122,3.49134
722.219,4.56846,17.5,3.83024,0.897198,3.51079
726.219,4.56953,17.5,3.82788,0.902275,3.53023
730.219,4.5706,17.5,3.82748,0.907353,3.54967
734.219,4.57166,17.5,3.82975,0.912432,3.56912
738.219,4.57272,17.5,3.8281,0.917512,3.58856
742.219,4.57378,17.5,3.82833,0.922594,3.60801
746.219,4.57483,17.5,3.82587,0.927676,3.62745
750.219,4.57588,17.5,3.82416,0.93276,3.6469
754.219,4.57693,17.5,3.82119,0.937845,3.66634
758.219,4.57798,17.5,3.82061,0.942932,3.68579
762.219,4.57903,17.5,3.82085,0.948019,3.70523
766.219,4.58007,17.5,3.82055,0.953108,3.72467
770.219,4.58112,17.5,3.82015,0.958197,3.74412
774.219,4.58216,17.5,3.81905,0.963288,3.76356
778.219,4.5832,17.5,3.81761,0.96838,3.78301
782.219,4.58424,17.5,3.81798,0.973473,3.80245
786.219,4.58528,17.5,3.81582,0.978568,3.8219
790.219,4.58631,17.5,3.81476,0.983663,3.84134
794.219,4.58735,17.5,3.81415,0.98876,3.86079
798.219,4.58839,17.5,3.81506,0.993857,3.88023
802.219,4.58942,17.5,3.81163,0.998956,3.89967
806.219,4.59046,17.5,3.81225,1.00406,3.91912
810.219,4.59149,17.5,3.81036,1.00916,3.93856
814.219,4.59252,17.5,3.81091,1.01426,3.95801
818.219,4.59356,17.5,3.80802,1.01936,3.97745
822.219,4.59459,17.5,3.80837,1.02447,3.9969
826.219,4.59563,17.5,3.80828,1.02957,4.01634
830.219,4.59666,17.5,3.80754,1.03468,4.03579
834.219,4.5977,17.5,3.80747,1.03979,4.05523
838.219,4.59874,17.5,3.80703,1.0449,4.07467
842.219,4.59978,17.5,3.80353,1.05001,4.09412
846.219,4.60082,17.5,3.80454,1.05512,4.11356
850.219,4.60186,17.5,3.80227,1.06023,4.13301
854.219,4.6029,17.5,3.80338,1.06535,4.15245
858.219,4.60394,17.5,3.80181,1.07046,4.1719
862.219,4.60498,17.5,3.80133,1.07558,4.19134
866.219,4.60603,17.5,3.79963,1.0807,4.21079
870.219,4.60708,17.5,3.79956,1.08581,4.23023
874.219,4.60813,17.5,3.79734,1.09093,4.24967
878.219,4.60918,17.5,3.79809,1.09605,4.26912
882.219,4.61023,17.5,3.79418,1.10118,4.28856
886.219,4.61128,17.5,3.79488,1.1063,4.30801
890.219,4.61234,17.5,3.79622,1.11142,4.32745
894.219,4.6134,17.5,3.79227,1.11655,4.3469
898.219,4.61446,17.5,3.79307,1.12168,4.36634
902.219,4.61552,17.5,3.79297,1.1268,4.38579
906.219,4.61659,17.5,3.79055,1.13193,4.40523
910.219,4.61766,17.5,3.7895,1.13706,4.42467
914.219,4.61873,17.5,3.78986,1.1422,4.44412
918.219,4.6198,17.5,3.78905,1.14733,4.46356
922.219,4.62087,17.5,3.78708,1.15246,4.48301
926.219,4.62195,17.5,3.78653,1.1576,4.50245
930.219,4.62303,17.5,3.78568,1.16273,4.5219
934.219,4.62411,17.5,3.78551,1.16787,4.54134
938.219,4.6252,17.5,3.78461,1.17301,4.56079
942.219,4.62628,17.5,3.7849,1.17815,4.58023
946.219,4.62737,17.5,3.78243,1.18329,4.59967
950.219,4.62847,17.5,3.78005,1.18843,4.61912
954.219,4.62956,17.5,3.78111,1.19358,4.63856
958.219,4.63066,17.5,3.77878,1.19872,4.65801
962.219,4.63176,17.5,3.77852,1.20387,4.67745
966.219,4.63286,17.5,3.77778,1.20901,4.6969
970.219,4.63397,17.5,3.77574,1.21416,4.71634
974.219,4.63508,17.5,3.77654,1.21931,4.73579
978.219,4.63619,17.5,3.77392,1.22446,4.75523
982.219,4.63731,17.5,3.77378,1.22961,4.77467
986.219,4.63843,17.5,3.77242,1.23477,4.79412
990.219,4.63955,17.5,3.77158,1.23992,4.81356
994.219,4.64068,17.5,3.77019,1.24508,4.83301
998.219,4.6418,17.5,3.7705,1.25024,4.85245
1002.22,4.64293,17.5,3.76911,1.25539,4.8719
1006.22,4.64407,17.5,3.76639,1.26055,4.89134
1010.22,4.64521,17.5,3.76759,1.26571,4.91079
1014.22,4.64635,17.5,3.76616,1.27088,4.93023
1018.22,4.64749,17.5,3.76545,1.27604,4.94967
1022.22,4.64864,17.5,3.76532,1.2812,4.96912
1026.22,4.64979,17.5,3.76431,1.28637,4.98856
1030.22,4.65094,17.5,3.76135,1.29154,5.00801
1034.22,4.6521,17.5,3.76195,1.29671,5.02745
1038.22,4.65326,17.5,3.76145,1.30188,5.0469
1042.22,4.65442,17.5,3.76258,1.30705,5.06634
1046.22,4.65559,17.5,3.7577,1.31222,5.08579
1050.22,4.65676,17.5,3.75805,1.31739,5.10523
1054.22,4.65794,17.5,3.75731,1.32257,5.12467
1058.22,4.65912,17.5,3.75691,1.32774,5.14412
1062.22,4.6603,17.5,3.75447,1.33292,5.16356
1066.22,4.66149,17.5,3.75181,1.3381,5.18301
1070.22,4.66268,17.5,3.75574,1.34328,5.20245
1074.22,4.66387,17.5,3.7529,1.34846,5.2219
1078.22,4.66507,17.5,3.75323,1.35365,5.24134
1082.22,4.66627,17.5,3.74944,1.35883,5.26079
1086.22,4.66748,17.5,3.74887,1.36402,5.28023
1090.22,4.66868,17.5,3.74742,1.3692,5.29967
1094.22,4.6699,17.5,3.74717,1.37439,5.31912
1098.22,4.67112,17.5,3.74606,1.37958,5.33856
1102.22,4.67234,17.5,3.74543,1.38477,5.35801
1106.22,4.67357,17.5,3.74112,1.38996,5.37745
1110.22,4.6748,17.5,3.74421,1.39516,5.3969
1114.22,4.67603,17.5,3.74284,1.40035,5.41634
1118.22,4.67727,17.5,3.74108,1.40555,5.43579
1122.22,4.67851,17.5,3.73916,1.41075,5.45523
1126.22,4.67976,17.5,3.73846,1.41595,5.47467
1130.22,4.68102,17.5,3.73811,1.42115,5.49412
1134.22,4.68227,17.5,3.73774,1.42635,5.51356
1138.22,4.68354,17.5,3.73582,1.43155,5.53301
1142.22,4.6848,17.5,3.73545,1.43676,5.55245
1146.22,4.68608,17.5,3.73356,1.44196,5.5719
1150.22,4.68735,17.5,3.73372,1.44717,5.59134
1154.22,4.68864,17.5,3.73269,1.45238,5.61079
1158.22,4.68992,17.5,3.73029,1.45759,5.63023
1162.22,4.69122,17.5,3.73119,1.4628,5.64967
1166.22,4.69251,17.5,3.7295,1.46802,5.66912
1170.22,4.69382,17.5,3.72939,1.47323,5.68856
1174.22,4.69513,17.5,3.72757,1.47845,5.70801
1178.22,4.69644,17.5,3.72548,1.48366,5.72745
1182.22,4.69776,17.5,3.72735,1.48888,5.7469
1186.22,4.69908,17.5,3.72395,1.4941,5.76634
1190.22,4.70041,17.5,3.72252,1.49933,5.78579
1194.22,4.70175,17.5,3.72257,1.50455,5.80523
1198.22,4.70309,17.5,3.72245,1.50978,5.82467
1202.22,4.70444,17.5,3.71949,1.515,5.84412
1206.22,4.70579,17.5,3.71964,1.52023,5.86356
1210.22,4.70715,17.5,3.71786,1.52546,5.88301
1214.22,4.70852,17.5,3.71735,1.53069,5.90245
1218.22,4.70989,17.5,3.71579,1.53592,5.9219
1222.22,4.71127,17.5,3.71477,1.54116,5.94134
1226.22,4.71265,17.5,3.7146,1.54639,5.96079
1230.22,4.71405,17.5,3.71274,1.55163,5.98023
1234.22,4.71544,17.5,3.71153,1.55687,5.99967
1238.22,4.71685,17.5,3.71075,1.56211,6.01912
1242.22,4.71826,17.5,3.70738,1.56735,6.03856
1246.22,4.71968,17.5,3.70676,1.5726,6.05801
1250.22,4.7211,17.5,3.70762,1.57784,6.07745
1254.22,4.72253,17.5,3.70524,1.58309,6.0969
1258.22,4.72397,17.5,3.70473,1.58834,6.11634
1262.22,4.72541,17.5,3.70457,1.59358,6.13579
1266.22,4.72687,17.5,3.70315,1.59884,6.15523
1270.22,4.72832,17.5,3.69981,1.60409,6.17467
1274.22,4.72979,17.5,3.70128,1.60934,6.19412
1278.22,4.73126,17.5,3.69908,1.6146,6.21356
1282.22,4.73275,17.5,3.69822,1.61986,6.23301
1286.22,4.73423,17.5,3.69795,1.62512,6.25245
1290.22,4.73573,17.5,3.69444,1.63038,6.2719
1294.22,4.73723,17.5,3.69388,1.63564,6.29134
1298.22,4.73874,17.5,3.69329,1.64091,6.31079
1302.22,4.74026,17.5,3.69136,1.64617,6.33023
1306.22,4.74179,17.5,3.69035,1.65144,6.34967
1310.22,4.74332,17.5,3.69084,1.65671,6.36912
1314.22,4.74486,17.5,3.6904,1.66198,6.38856
1318.22,4.74641,17.5,3.68783,1.66726,6.40801
1322.22,4.74797,17.5,3.686,1.67253,6.42745
1326.22,4.74953,17.5,3.68582,1.67781,6.4469
1330.22,4.75111,17.5,3.68286,1.68309,6.46634
1334.22,4.75269,17.5,3.68309,1.68837,6.48579
1338.22,4.75427,17.5,3.68117,1.69365,6.50523
1342.22,4.75587,17.5,3.67868,1.69893,6.52467
1346.22,4.75747,17.5,3.67772,1.70422,6.54412
1350.22,4.75908,17.5,3.67525,1.7095,6.56356
1354.22,4.7607,17.5,3.67628,1.71479,6.58301
1358.22,4.76232,17.5,3.67491,1.72008,6.60245
1362.22,4.76395,17.5,3.67348,1.72538,6.6219
1366.22,4.76559,17.5,3.67328,1.73067,6.64134
1370.22,4.76723,17.5,3.67077,1.73597,6.66079
1374.22,4.76888,17.5,3.67096,1.74126,6.68023
1378.22,4.77054,17.5,3.669,1.74656,6.69967
1382.22,4.7722,17.5,3.66695,1.75187,6.71912
1386.22,4.77387,17.5,3.66683,1.75717,6.73856
1390.22,4.77554,17.5,3.66443,1.76248,6.75801
1394.22,4.77722,17.5,3.66374,1.76778,6.77745
1398.22,4.77891,17.5,3.66035,1.77309,6.7969
1402.22,4.78059,17.5,3.66108,1.7784,6.81634
1406.22,4.78229,17.5,3.65949,1.78372,6.83579
1410.22,4.78398,17.5,3.65655,1.78903,6.85523
1414.22,4.78568,17.5,3.65562,1.79435,6.87467
1418.22,4.78738,17.5,3.65723,1.79967,6.89412
1422.22,4.78909,17.5,3.65471,1.80499,6.91356
1426.22,4.7908,17.5,3.65123,1.81031,6.93301
1430.22,4.7925,17.5,3.64991,1.81563,6.95245
1434.22,4.79421,17.5,3.65017,1.82096,6.9719
1438.22,4.79593,17.5,3.64981,1.82629,6.99134
1442.22,4.79764,17.5,3.64853,1.83162,7.01079
1446.22,4.79935,17.5,3.64637,1.83695,7.03023
1450.22,4.80106,17.5,3.64434,1.84228,7.04967
1454.22,4.80277,17.5,3.64249,1.84762,7.06912
1458.22,4.80448,17.5,3.64249,1.85296,7.08856
1462.22,4.80618,17.5,3.64077,1.8583,7.10801
1466.22,4.80789,17.5,3.64088,1.86364,7.12745
1470.22,4.80959,17.5,3.63758,1.86898,7.1469
1474.22,4.81129,17.5,3.63706,1.87433,7.16634
1478.22,4.81299,17.5,3.63618,1.87967,7.18579
1482.22,4.81468,17.5,3.63384,1.88502,7.20523
1486.22,4.81638,17.5,3.63242,1.89037,7.22467
1490.22,4.81806,17.5,3.63146,1.89573,7.24412
1494.22,4.81974,17.5,3.63057,1.90108,7.26356
1498.22,4.82142,17.5,3.6293,1.90644,7.28301
1502.22,4.8231,17.5,3.62703,1.91179,7.30245
1506.22,4.82476,17.5,3.6263,1.91716,7.3219
1510.22,4.82643,17.5,3.62509,1.92252,7.34134
1514.22,4.82809,17.5,3.62492,1.92788,7.36079
1518.22,4.82974,17.5,3.62371,1.93325,7.38023
1522.22,4.83139,17.5,3.62381,1.93861,7.39967
1526.22,4.83303,17.5,3.62115,1.94398,7.41912
1530.22,4.83467,17.5,3.62184,1.94935,7.43856
1534.22,4.8363,17.5,3.61865,1.95473,7.45801
1538.22,4.83793,17.5,3.61719,1.9601,7.47745
1542.22,4.83954,17.5,3.61377,1.96548,7.4969
1546.22,4.84116,17.5,3.6158,1.97086,7.51634
1550.22,4.84277,17.5,3.61285,1.97624,7.53579
1554.22,4.84437,17.5,3.61206,1.98162,7.55523
1558.22,4.84596,17.5,3.61101,1.987,7.57467
1562.22,4.84755,17.5,3.6103,1.99239,7.59412
1566.22,4.84913,17.5,3.60872,1.99778,7.61356
1570.22,4.85071,17.5,3.6093,2.00317,7.63301
1574.22,4.85228,17.5,3.60564,2.00856,7.65245
1578.22,4.85384,17.5,3.605,2.01395,7.6719
1582.22,4.8554,17.5,3.60329,2.01934,7.69134
1586.22,4.85695,17.5,3.60305,2.02474,7.71079
1590.22,4.85849,17.5,3.60189,2.03014,7.73023
1594.22,4.86003,17.5,3.60123,2.03554,7.74967
1598.22,4.86156,17.5,3.5999,2.04094,7.76912
1602.22,4.86308,17.5,3.59729,2.04634,7.78856
1606.22,4.8646,17.5,3.59621,2.05174,7.80801
1610.22,4.86611,17.5,3.59597,2.05715,7.82745
1614.22,4.86762,17.5,3.59557,2.06256,7.8469
1618.22,4.86912,17.5,3.59527,2.06797,7.86634
1622.22,4.87061,17.5,3.59348,2.07338,7.88579
1626.22,4.87209,17.5,3.59239,2.07879,7.90523
1630.22,4.87357,17.5,3.59099,2.08421,7.92467
1634.22,4.87504,17.5,3.58852,2.08962,7.94412
1638.22,4.87651,17.5,3.5874,2.09504,7.96356
1642.22,4.87796,17.5,3.58691,2.10046,7.98301
1646.22,4.87942,17.5,3.58788,2.10588,8.00245
1650.22,4.88086,17.5,3.58597,2.1113,8.0219
1654.22,4.8823,17.5,3.58241,2.11673,8.04134
1658.22,4.88373,17.5,3.58198,2.12215,8.06079
1662.22,4.88516,17.5,3.58267,2.12758,8.08023
1666.22,4.88658,17.5,3.58048,2.13301,8.09967
1670.22,4.88799,17.5,3.57884,2.13844,8.11912
1674.22,4.88939,17.5,3.57941,2.14387,8.13856
1678.22,4.89079,17.5,3.5782,2.14931,8.15801
1682.22,4.89218,17.5,3.57672,2.15474,8.17745
1686.22,4.89357,17.5,3.57642,2.16018,8.1969
1690.22,4.89495,17.5,3.57482,2.16562,8.21634
1694.22,4.89632,17.5,3.5726,2.17106,8.23579
1698.22,4.89769,17.5,3.57331,2.1765,8.25523
1702.22,4.89905,17.5,3.57357,2.18194,8.27467
1706.22,4.9004,17.5,3.56979,2.18738,8.29412
1710.22,4.90175,17.5,3.5696,2.19283,8.31356
1714.22,4.90309,17.5,3.56885,2.19828,8.33301
1718.22,4.90442,17.5,3.56798,2.20373,8.35245
1722.22,4.90575,17.5,3.56843,2.20918,8.3719
1726.22,4.90707,17.5,3.56753,2.21463,8.39134
1730.22,4.90839,17.5,3.5647,2.22008,8.41079
1734.22,4.9097,17.5,3.56323,2.22554,8.43023
1738.22,4.911,17.5,3.56363,2.23099,8.44967
1742.22,4.9123,17.5,3.56306,2.23645,8.46912
1746.22,4.91359,17.5,3.56201,2.24191,8.48856
1750.22,4.91487,17.5,3.56117,2.24737,8.50801
1754.22,4.91615,17.5,3.56139,2.25283,8.52745
1758.22,4.91743,17.5,3.5595,2.25829,8.5469
1762.22,4.91869,17.5,3.55935,2.26376,8.56634
1766.22,4.91996,17.5,3.55559,2.26922,8.58579
1770.22,4.92121,17.5,3.55804,2.27469,8.60523
1774.22,4.92246,17.5,3.55495,2.28016,8.62467
1778.22,4.92371,17.5,3.55506,2.28563,8.64412
1782.22,4.92495,17.5,3.55237,2.2911,8.66356
1786.22,4.92618,17.5,3.55153,2.29658,8.68301
1790.22,4.92741,17.5,3.55289,2.30205,8.70245
1794.22,4.92864,17.5,3.55142,2.30753,8.7219
1798.22,4.92986,17.5,3.54982,2.313,8.74134
1802.22,4.93107,17.5,3.54802,2.31848,8.76079
1806.22,4.93228,17.5,3.54613,2.32396,8.78023
1810.22,4.93348,17.5,3.54533,2.32944,8.79967
1814.22,4.93468,17.5,3.54582,2.33492,8.81912
1818.22,4.93588,17.5,3.54423,2.34041,8.83856
1822.22,4.93707,17.5,3.545,2.34589,8.85801
1826.22,4.93825,17.5,3.54461,2.35138,8.87745
1830.22,4.93944,17.5,3.54363,2.35687,8.8969
1834.22,4.94061,17.5,3.54213,2.36236,8.91634
1838.22,4.94179,17.5,3.54186,2.36785,8.93579
1842.22,4.94295,17.5,3.54021,2.37334,8.95523
1846.22,4.94412,17.5,3.54007,2.37883,8.97467
1850.22,4.94528,17.5,3.53829,2.38433,8.99412
1854.22,4.94644,17.5,3.53704,2.38982,9.01356
1858.22,4.94759,17.5,3.53716,2.39532,9.03301
1862.22,4.94874,17.5,3.53573,2.40082,9.05245
1866.22,4.94989,17.5,3.53579,2.40632,9.0719
1870.22,4.95103,17.5,3.53507,2.41182,9.09134
1874.22,4.95217,17.5,3.53334,2.41732,9.11079
1878.22,4.95331,17.5,3.53431,2.42282,9.13023
1882.22,4.95444,17.5,3.53118,2.42833,9.14967
1886.22,4.95557,17.5,3.53226,2.43383,9.16912
1890.22,4.9567,17.5,3.52995,2.43934,9.18856
1894.22,4.95782,17.5,3.53049,2.44485,9.20801
1898.22,4.95895,17.5,3.52964,2.45036,9.22745
1902.22,4.96007,17.5,3.52875,2.45587,9.2469
1906.22,4.96118,17.5,3.52691,2.46138,9.26634
1910.22,4.9623,17.5,3.52748,2.46689,9.28579
1914.22,4.96341,17.5,3.52538,2.47241,9.30523
1918.22,4.96452,17.5,3.52437,2.47792,9.32467
1922.22,4.96563,17.5,3.52425,2.48344,9.34412
1926.22,4.96674,17.5,3.52169,2.48896,9.36356
1930.22,4.96784,17.5,3.52378,2.49448,9.38301
1934.22,4.96894,17.5,3.52225,2.5,9.40245
1938.22,4.97005,17.5,3.52108,2.50552,9.4219
1942.22,4.97115,17.5,3.52022,2.51104,9.44134
1946.22,4.97224,17.5,3.52144,2.51657,9.46079
1950.22,4.97334,17.5,3.51777,2.52209,9.48023
1954.22,4.97444,17.5,3.51796,2.52762,9.49967
1958.22,4.97553,17.5,3.51626,2.53315,9.51912
1962.22,4.97663,17.5,3.51684,2.53868,9.53856
1966.22,4.97772,17.5,3.51689,2.54421,9.55801
1970.22,4.97881,17.5,3.51371,2.54974,9.57745
1974.22,4.9799,17.5,3.51426,2.55527,9.5969
1978.22,4.98099,17.5,3.51305,2.56081,9.61634
1982.22,4.98208,17.5,3.5129,2.56634,9.63579
1986.22,4.98317,17.5,3.51178,2.57188,9.65523
1990.22,4.98426,17.5,3.51116,2.57741,9.67467
1994.22,4.98535,17.5,3.51117,2.58295,9.69412
1998.22,4.98644,17.5,3.50768,2.58849,9.71356
2002.22,4.98753,17.5,3.50813,2.59403,9.73301
2006.22,4.98862,17.5,3.508,2.59958,9.75245
2010.22,4.9897,17.5,3.50897,2.60512,9.7719
2014.22,4.99079,17.5,3.50654,2.61067,9.79134
2018.22,4.99188,17.5,3.50628,2.61621,9.81079
2022.22,4.99297,17.5,3.50465,2.62176,9.83023
2026.22,4.99406,17.5,3.50292,2.62731,9.84967
2030.22,4.99515,17.5,3.50262,2.63286,9.86912
2034.22,4.99624,17.5,3.50168,2.63841,9.88856
2038.22,4.99733,17.5,3.50211,2.64396,9.90801
2042.22,4.99842,17.5,3.5006,2.64951,9.92745
2046.22,4.99951,17.5,3.50155,2.65507,9.9469
2050.22,5.00061,17.5,3.49985,2.66062,9.96634
2054.22,5.0017,17.5,3.50052,2.66618,9.98579
2058.22,5.0028,17.5,3.49919,2.67174,10.0052
2062.22,5.00389,17.5,3.49551,2.6773,10.0247
2066.22,5.00499,17.5,3.49665,2.68286,10.0441
2070.22,5.00608,17.5,3.49627,2.68842,10.0636
2074.22,5.00718,17.5,3.49455,2.69398,10.083
2078.22,5.00828,17.5,3.49398,2.69955,10.1025
2082.22,5.00938,17.5,3.49298,2.70511,10.1219
2086.22,5.01049,17.5,3.49379,2.71068,10.1413
2090.22,5.01159,17.5,3.49195,2.71625,10.1608
2094.22,5.0127,17.5,3.49055,2.72182,10.1802
2098.22,5.0138,17.5,3.49068,2.72739,10.1997
2102.22,5.01491,17.5,3.48889,2.73296,10.2191
2106.22,5.01602,17.5,3.48926,2.73853,10.2386
2110.22,5.01713,17.5,3.48849,2.74411,10.258
2114.22,5.01825,17.5,3.48735,2.74968,10.2775
2118.22,5.01936,17.5,3.48701,2.75526,10.2969
2122.22,5.02048,17.5,3.48513,2.76084,10.3163
2126.22,5.0216,17.5,3.48552,2.76642,10.3358
2130.22,5.02272,17.5,3.4831,2.772,10.3552
2134.22,5.02384,17.5,3.48235,2.77758,10.3747
2138.22,5.02497,17.5,3.48153,2.78316,10.3941
2142.22,5.02609,17.5,3.48178,2.78874,10.4136
2146.22,5.02722,17.5,3.48073,2.79433,10.433
2150.22,5.02835,17.5,3.48045,2.79992,10.4525
2154.22,5.02949,17.5,3.48094,2.8055,10.4719
2158.22,5.03062,17.5,3.47872,2.81109,10.4913
2162.22,5.03176,17.5,3.47894,2.81668,10.5108
2166.22,5.0329,17.5,3.47789,2.82228,10.5302
2170.22,5.03404,17.5,3.47812,2.82787,10.5497
2174.22,5.03519,17.5,3.47595,2.83346,10.5691
2178.22,5.03634,17.5,3.477,2.83906,10.5886
2182.22,5.03748,17.5,3.4732,2.84465,10.608
2186.22,5.03864,17.5,3.47331,2.85025,10.6275
2190.22,5.03979,17.5,3.47323,2.85585,10.6469
2194.22,5.04095,17.5,3.47092,2.86145,10.6663
2198.22,5.04211,17.5,3.4722,2.86705,10.6858
2202.22,5.04327,17.5,3.46986,2.87266,10.7052
2206.22,5.04444,17.5,3.46981,2.87826,10.7247
2210.22,5.04561,17.5,3.4683,2.88387,10.7441
2214.22,5.04678,17.5,3.46668,2.88947,10.7636
2218.22,5.04795,17.5,3.46578,2.89508,10.783
2222.22,5.04913,17.5,3.467,2.90069,10.8025
2226.22,5.05031,17.5,3.4659,2.9063,10.8219
2230.22,5.05149,17.5,3.46441,2.91192,10.8413
2234.22,5.05268,17.5,3.46475,2.91753,10.8608
2238.22,5.05387,17.5,3.4625,2.92314,10.8802
2242.22,5.05506,17.5,3.46161,2.92876,10.8997
2246.22,5.05626,17.5,3.46028,2.93438,10.9191
2250.22,5.05745,17.5,3.45991,2.94,10.9386
2254.22,5.05866,17.5,3.45918,2.94562,10.958
2258.22,5.05986,17.5,3.45937,2.95124,10.9775
2262.22,5.06107,17.5,3.45611,2.95686,10.9969
2266.22,5.06228,17.5,3.45593,2.96249,11.0163
2270.22,5.06349,17.5,3.45501,2.96811,11.0358
2274.22,5.06471,17.5,3.45419,2.97374,11.0552
2278.22,5.06593,17.5,3.45424,2.97937,11.0747
2282.22,5.06716,17.5,3.452,2.985,11.0941
2286.22,5.06839,17.5,3.45186,2.99063,11.1136
2290.22,5.06962,17.5,3.45094,2.99626,11.133
2294.22,5.07086,17.5,3.4497,3.00189,11.1525
2298.22,5.0721,17.5,3.44713,3.00753,11.1719
2302.22,5.07334,17.5,3.44982,3.01317,11.1913
2306.22,5.07459,17.5,3.44935,3.0188,11.2108
2310.22,5.07584,17.5,3.44682,3.02444,11.2302
2314.22,5.07709,17.5,3.44646,3.03008,11.2497
2318.22,5.07835,17.5,3.44747,3.03573,11.2691
2322.22,5.07961,17.5,3.44486,3.04137,11.2886
2326.22,5.08088,17.5,3.44295,3.04701,11.308
2330.22,5.08215,17.5,3.44182,3.05266,11.3275
2334.22,5.08342,17.5,3.44244,3.05831,11.3469
2338.22,5.0847,17.5,3.4413,3.06396,11.3663
2342.22,5.08598,17.5,3.44268,3.06961,11.3858
2346.22,5.08727,17.5,3.43824,3.07526,11.4052
2350.22,5.08856,17.5,3.43917,3.08091,11.4247
2354.22,5.08985,17.5,3.43877,3.08657,11.4441
2358.22,5.09115,17.5,3.43862,3.09222,11.4636
2362.22,5.09245,17.5,3.43654,3.09788,11.483
2366.22,5.09376,17.5,3.43424,3.10354,11.5025
2370.22,5.09507,17.5,3.43656,3.1092,11.5219
2374.22,5.09639,17.5,3.43364,3.11486,11.5413
2378.22,5.09771,17.5,3.43222,3.12053,11.5608
2382.22,5.09903,17.5,3.43283,3.12619,11.5802
2386.22,5.10036,17.5,3.42895,3.13186,11.5997
2390.22,5.1017,17.5,3.42794,3.13753,11.6191
2394.22,5.10304,17.5,3.43033,3.1432,11.6386
2398.22,5.10438,17.5,3.42957,3.14887,11.658
2402.22,5.10573,17.5,3.4266,3.15454,11.6775
2406.22,5.10708,17.5,3.42641,3.16021,11.6969
2410.22,5.10844,17.5,3.42471,3.16589,11.7163
2414.22,5.1098,17.5,3.42434,3.17157,11.7358
2418.22,5.11117,17.5,3.4247,3.17724,11.7552
2422.22,5.11255,17.5,3.42435,3.18292,11.7747
2426.22,5.11392,17.5,3.42094,3.18861,11.7941
2430.22,5.11531,17.5,3.42263,3.19429,11.8136
2434.22,5.1167,17.5,3.42002,3.19997,11.833
2438.22,5.11809,17.5,3.4188,3.20566,11.8525
2442.22,5.11949,17.5,3.41869,3.21135,11.8719
2446.22,5.12089,17.5,3.41744,3.21704,11.8913
2450.22,5.1223,17.5,3.41797,3.22273,11.9108
2454.22,5.12372,17.5,3.41601,3.22842,11.9302
2458.22,5.12514,17.5,3.41527,3.23411,11.9497
2462.22,5.12657,17.5,3.41468,3.23981,11.9691
2466.22,5.128,17.5,3.41225,3.24551,11.9886
2470.22,5.12944,17.5,3.41329,3.25121,12.008
2474.22,5.13089,17.5,3.41121,3.25691,12.0275
2478.22,5.13234,17.5,3.41008,3.26261,12.0469
2482.22,5.13379,17.5,3.40717,3.26831,12.0663
2486.22,5.13526,17.5,3.40745,3.27402,12.0858
2490.22,5.13672,17.5,3.40718,3.27972,12.1052
2494.22,5.1382,17.5,3.40803,3.28543,12.1247
2498.22,5.13968,17.5,3.40601,3.29114,12.1441
2502.22,5.14117,17.5,3.40525,3.29685,12.1636
2506.22,5.14266,17.5,3.40456,3.30257,12.183
2510.22,5.14416,17.5,3.40241,3.30828,12.2025
2514.22,5.14567,17.5,3.40128,3.314,12.2219
2518.22,5.14719,17.5,3.39887,3.31972,12.2413
2522.22,5.14871,17.5,3.39853,3.32544,12.2608
2526.22,5.15023,17.5,3.39814,3.33116,12.2802
2530.22,5.15177,17.5,3.39528,3.33688,12.2997
2534.22,5.15331,17.5,3.39566,3.34261,12.3191
2538.22,5.15486,17.5,3.39485,3.34834,12.3386
2542.22,5.15641,17.5,3.39278,3.35406,12.358
2546.22,5.15798,17.5,3.3928,3.3598,12.3775
2550.22,5.15955,17.5,3.39204,3.36553,12.3969
2554.22,5.16113,17.5,3.39055,3.37126,12.4163
2558.22,5.16271,17.5,3.38876,3.377,12.4358
2562.22,5.1643,17.5,3.38782,3.38273,12.4552
2566.22,5.16591,17.5,3.38775,3.38847,12.4747
2570.22,5.16751,17.5,3.3841,3.39421,12.4941
2574.22,5.16913,17.5,3.38612,3.39996,12.5136
2578.22,5.17075,17.5,3.38483,3.4057,12.533
2582.22,5.17239,17.5,3.38381,3.41145,12.5525
2586.22,5.17403,17.5,3.38205,3.4172,12.5719
2590.22,5.17567,17.5,3.38228,3.42295,12.5913
2594.22,5.17733,17.5,3.381,3.4287,12.6108
2598.22,5.179,17.5,3.37837,3.43445,12.6302
2602.22,5.18067,17.5,3.37654,3.44021,12.6497
2606.22,5.18235,17.5,3.3766,3.44597,12.6691
2610.22,5.18404,17.5,3.3772,3.45173,12.6886
2614.22,5.18574,17.5,3.37361,3.45749,12.708
2618.22,5.18744,17.5,3.37296,3.46325,12.7275
2622.22,5.18916,17.5,3.37299,3.46901,12.7469
2626.22,5.19088,17.5,3.37213,3.47478,12.7663
2630.22,5.19262,17.5,3.36838,3.48055,12.7858
2634.22,5.19436,17.5,3.36839,3.48632,12.8052
2638.22,5.19611,17.5,3.36754,3.49209,12.8247
2642.22,5.19786,17.5,3.36799,3.49787,12.8441
2646.22,5.19963,17.5,3.36558,3.50364,12.8636
2650.22,5.20141,17.5,3.36572,3.50942,12.883
2654.22,5.20319,17.5,3.36318,3.5152,12.9025
2658.22,5.20498,17.5,3.36326,3.52099,12.9219
2662.22,5.20678,17.5,3.36128,3.52677,12.9413
2666.22,5.20859,17.5,3.35838,3.53256,12.9608
2670.22,5.21041,17.5,3.35898,3.53835,12.9802
2674.22,5.21223,17.5,3.35845,3.54414,12.9997
2678.22,5.21407,17.5,3.35712,3.54993,13.0191
2682.22,5.21591,17.5,3.35598,3.55572,13.0386
2686.22,5.21776,17.5,3.35437,3.56152,13.058
2690.22,5.21961,17.5,3.3518,3.56732,13.0775
2694.22,5.22148,17.5,3.35228,3.57312,13.0969
2698.22,5.22335,17.5,3.34965,3.57892,13.1163
2702.22,5.22523,17.5,3.348,3.58473,13.1358
2706.22,5.22711,17.5,3.34926,3.59054,13.1552
2710.22,5.22901,17.5,3.34626,3.59635,13.1747
2714.22,5.23091,17.5,3.34801,3.60216,13.1941
2718.22,5.23281,17.5,3.34328,3.60797,13.2136
2722.22,5.23472,17.5,3.34369,3.61379,13.233
2726.22,5.23664,17.5,3.3419,3.6196,13.2525
2730.22,5.23856,17.5,3.34146,3.62542,13.2719
2734.22,5.24049,17.5,3.3409,3.63124,13.2913
2738.22,5.24242,17.5,3.3399,3.63707,13.3108
2742.22,5.24436,17.5,3.33718,3.6429,13.3302
2746.22,5.24631,17.5,3.3356,3.64872,13.3497
2750.22,5.24825,17.5,3.33518,3.65455,13.3691
2754.22,5.2502,17.5,3.33363,3.66039,13.3886
2758.22,5.25216,17.5,3.33225,3.66622,13.408
2762.22,5.25411,17.5,3.33034,3.67206,13.4275
2766.22,5.25607,17.5,3.32876,3.6779,13.4469
2770.22,5.25804,17.5,3.32883,3.68374,13.4663
2774.22,5.26,17.5,3.32883,3.68958,13.4858
2778.22,5.26197,17.5,3.32516,3.69543,13.5052
2782.22,5.26394,17.5,3.32476,3.70128,13.5247
2786.22,5.26591,17.5,3.32378,3.70713,13.5441
2790.22,5.26788,17.5,3.3224,3.71298,13.5636
2794.22,5.26985,17.5,3.3211,3.71883,13.583
2798.22,5.27182,17.5,3.32062,3.72469,13.6025
2802.22,5.2738,17.5,3.31836,3.73055,13.6219
2806.22,5.27577,17.5,3.31639,3.73641,13.6413
2810.22,5.27774,17.5,3.31527,3.74227,13.6608
2814.22,5.27972,17.5,3.31334,3.74814,13.6802
2818.22,5.28169,17.5,3.31327,3.75401,13.6997
2822.22,5.28366,17.5,3.31264,3.75988,13.7191
2826.22,5.28564,17.5,3.31006,3.76575,13.7386
2830.22,5.28761,17.5,3.31035,3.77162,13.758
2834.22,5.28958,17.5,3.30701,3.7775,13.7775
2838.22,5.29155,17.5,3.3085,3.78338,13.7969
2842.22,5.29352,17.5,3.30643,3.78926,13.8163
2846.22,5.29549,17.5,3.30379,3.79514,13.8358
2850.22,5.29746,17.5,3.30405,3.80103,13.8552
2854.22,5.29943,17.5,3.3021,3.80692,13.8747
2858.22,5.3014,17.5,3.30159,3.81281,13.8941
2862.22,5.30337,17.5,3.29986,3.8187,13.9136
2866.22,5.30533,17.5,3.29837,3.82459,13.933
2870.22,5.3073,17.5,3.29859,3.83049,13.9525
2874.22,5.30927,17.5,3.29467,3.83639,13.9719
2878.22,5.31124,17.5,3.29279,3.84229,13.9913
2882.22,5.31321,17.5,3.29473,3.84819,14.0108
2886.22,5.31518,17.5,3.29202,3.85409,14.0302
2890.22,5.31715,17.5,3.29173,3.86,14.0497
2894.22,5.31912,17.5,3.2918,3.86591,14.0691
2898.22,5.3211,17.5,3.28818,3.87182,14.0886
2902.22,5.32307,17.5,3.28828,3.87774,14.108
2906.22,5.32505,17.5,3.28627,3.88365,14.1275
2910.22,5.32703,17.5,3.28473,3.88957,14.1469
2914.22,5.32902,17.5,3.28295,3.89549,14.1663
2918.22,5.33101,17.5,3.28189,3.90141,14.1858
2922.22,5.333,17.5,3.28262,3.90734,14.2052
2926.22,5.335,17.5,3.28085,3.91326,14.2247
2930.22,5.337,17.5,3.28034,3.91919,14.2441
2934.22,5.33901,17.5,3.2782,3.92512,14.2636
2938.22,5.34102,17.5,3.2773,3.93106,14.283
2942.22,5.34305,17.5,3.27606,3.93699,14.3025
2946.22,5.34507,17.5,3.27522,3.94293,14.3219
2950.22,5.34711,17.5,3.27127,3.94887,14.3413
2954.22,5.34915,17.5,3.27277,3.95482,14.3608
2958.22,5.3512,17.5,3.27099,3.96076,14.3802
2962.22,5.35326,17.5,3.26931,3.96671,14.3997
2966.22,5.35533,17.5,3.26711,3.97266,14.4191
2970.22,5.35741,17.5,3.26775,3.97861,14.4386
2974.22,5.3595,17.5,3.26422,3.98456,14.458
2978.22,5.3616,17.5,3.26366,3.99052,14.4775
2982.22,5.36371,17.5,3.26359,3.99648,14.4969
2986.22,5.36584,17.5,3.26082,4.00244,14.5163
2990.22,5.36798,17.5,3.26005,4.0084,14.5358
2994.22,5.37013,17.5,3.25833,4.01437,14.5552
2998.22,5.37229,17.5,3.25849,4.02034,14.5747
3002.22,5.37447,17.5,3.2556,4.02631,14.5941
3006.22,5.37666,17.5,3.2534,4.03228,14.6136
3010.22,5.37887,17.5,3.25392,4.03826,14.633
3014.22,5.3811,17.5,3.25147,4.04423,14.6525
3018.22,5.38334,17.5,3.24916,4.05022,14.6719
3022.22,5.3856,17.5,3.24868,4.0562,14.6913
3026.22,5.38788,17.5,3.2501,4.06218,14.7108
3030.22,5.39018,17.5,3.24411,4.06817,14.7302
3034.22,5.3925,17.5,3.24564,4.07416,14.7497
3038.22,5.39483,17.5,3.24429,4.08016,14.7691
3042.22,5.39719,17.5,3.24403,4.08615,14.7886
3046.22,5.39957,17.5,3.24179,4.09215,14.808
3050.22,5.40197,17.5,3.24217,4.09815,14.8275
3054.22,5.4044,17.5,3.23547,4.10416,14.8469
3058.22,5.40685,17.5,3.23553,4.11016,14.8663
3062.22,5.40932,17.5,3.23513,4.11617,14.8858
3066.22,5.41183,17.5,3.23217,4.12218,14.9052
3070.22,5.41435,17.5,3.23241,4.1282,14.9247
3074.22,5.41691,17.5,3.23071,4.13422,14.9441
3078.22,5.41949,17.5,3.22856,4.14024,14.9636
3082.22,5.42211,17.5,3.22728,4.14626,14.983
3086.22,5.42476,17.5,3.22547,4.15229,15.0025
3090.22,5.42743,17.5,3.22453,4.15832,15.0219
3094.22,5.43015,17.5,3.22168,4.16435,15.0413
3098.22,5.43289,17.5,3.22113,4.17038,15.0608
3102.22,5.43568,17.5,3.21762,4.17642,15.0802
3106.22,5.4385,17.5,3.21773,4.18246,15.0997
3110.22,5.44136,17.5,3.21664,4.18851,15.1191
3114.22,5.44426,17.5,3.21469,4.19456,15.1386
3118.22,5.44721,17.5,3.21218,4.20061,15.158
3122.22,5.4502,17.5,3.21097,4.20666,15.1775
3126.22,5.45323,17.5,3.20832,4.21272,15.1969
3130.22,5.45632,17.5,3.20644,4.21878,15.2163
3134.22,5.45946,17.5,3.20454,4.22485,15.2358
3138.22,5.46265,17.5,3.20577,4.23091,15.2552
3142.22,5.46589,17.5,3.20179,4.23699,15.2747
3146.22,5.4692,17.5,3.19997,4.24306,15.2941
3150.22,5.47257,17.5,3.19811,4.24914,15.3136
3154.22,5.47601,17.5,3.19705,4.25522,15.333
3158.22,5.47951,17.5,3.19512,4.26131,15.3525
3162.22,5.48308,17.5,3.19278,4.2674,15.3719
3166.22,5.48674,17.5,3.18885,4.2735,15.3913
3170.22,5.49047,17.5,3.18784,4.2796,15.4108
3174.22,5.49429,17.5,3.18509,4.2857,15.4302
3178.22,5.4982,17.5,3.18166,4.29181,15.4497
3182.22,5.50221,17.5,3.18171,4.29792,15.4691
3186.22,5.50631,17.5,3.17714,4.30403,15.4886
3190.22,5.51052,17.5,3.17503,4.31016,15.508
3194.22,5.51485,17.5,3.17353,4.31628,15.5275
3198.22,5.51929,17.5,3.1722,4.32241,15.5469
3202.22,5.52385,17.5,3.16902,4.32855,15.5663
3206.22,5.52855,17.5,3.16585,4.33469,15.5858
3210.22,5.53339,17.5,3.16296,4.34083,15.6052
3214.22,5.53837,17.5,3.15938,4.34699,15.6247
3218.22,5.5435,17.5,3.15716,4.35314,15.6441
3222.22,5.5488,17.5,3.15341,4.35931,15.6636
3226.22,5.55425,17.5,3.15091,4.36548,15.683
3230.22,5.55988,17.5,3.14869,4.37165,15.7025
3234.22,5.56568,17.5,3.14358,4.37783,15.7219
3238.22,5.57167,17.5,3.13989,4.38402,15.7413
3242.22,5.57784,17.5,3.13737,4.39022,15.7608
3246.22,5.58419,17.5,3.13155,4.39642,15.7802
3250.22,5.59074,17.5,3.13001,4.40263,15.7997
3254.22,5.59748,17.5,3.12666,4.40884,15.8191
3258.22,5.60441,17.5,3.12241,4.41507,15.8386
3262.22,5.61152,17.5,3.11856,4.4213,15.858
3266.22,5.61883,17.5,3.11585,4.42754,15.8775
3270.22,5.62631,17.5,3.10993,4.43379,15.8969
3274.22,5.63398,17.5,3.10699,4.44005,15.9163
3278.22,5.64182,17.5,3.10293,4.44631,15.9358
3282.22,5.64982,17.5,3.09747,4.45258,15.9552
3286.22,5.65798,17.5,3.09264,4.45887,15.9747
3290.22,5.66629,17.5,3.08715,4.46516,15.9941
3294.22,5.67475,17.5,3.08285,4.47146,16.0136
3298.22,5.68333,17.5,3.0804,4.47777,16.033
3302.22,5.69204,17.5,3.07428,4.48409,16.0525
3306.22,5.70086,17.5,3.07004,4.49042,16.0719
3310.22,5.70978,17.5,3.06481,4.49677,16.0913
3314.22,5.7188,17.5,3.06072,4.50312,16.1108
3318.22,5.72791,17.5,3.05443,4.50948,16.1302
3322.22,5.73709,17.5,3.05031,4.51585,16.1497
3326.22,5.74634,17.5,3.0447,4.52223,16.1691
3330.22,5.75565,17.5,3.03951,4.52862,16.1886
3334.22,5.76501,17.5,3.03533,4.53502,16.208
3338.22,5.77442,17.5,3.03203,4.54143,16.2275
3342.22,5.78388,17.5,3.02572,4.54786,16.2469
3346.22,5.79338,17.5,3.0197,4.55429,16.2663
3350.22,5.80291,17.5,3.01611,4.56073,16.2858
3354.22,5.81248,17.5,3.01071,4.56719,16.3052
3358.22,5.82208,17.5,3.00581,4.57365,16.3247
3362.22,5.83172,17.5,3.00144,4.58013,16.3441
3366.22,5.8414,17.5,2.99599,4.58661,16.3636
3370.22,5.85112,17.5,2.99051,4.59311,16.383
3374.22,5.86088,17.5,2.98585,4.59962,16.4025
3378.22,5.8707,17.5,2.98088,4.60614,16.4219
3382.22,5.88057,17.5,2.97585,4.61267,16.4413
3386.22,5.89052,17.5,2.96934,4.61921,16.4608
3390.22,5.90054,17.5,2.96631,4.62576,16.4802
3394.22,5.91064,17.5,2.96001,4.63232,16.4997
3398.22,5.92085,17.5,2.95506,4.6389,16.5191
3402.22,5.93117,17.5,2.95055,4.64548,16.5386
3406.22,5.94162,17.5,2.9466,4.65208,16.558
3410.22,5.95222,17.5,2.93893,4.65869,16.5775
3414.22,5.96297,17.5,2.93382,4.66531,16.5969
3418.22,5.97391,17.5,2.92976,4.67194,16.6163
3422.22,5.98504,17.5,2.92506,4.67859,16.6358
3426.22,5.9964,17.5,2.91891,4.68525,16.6552
3430.22,6.008,17.5,2.9127,4.69192,16.6747
3434.22,6.01987,17.5,2.90559,4.6986,16.6941
3438.22,6.03203,17.5,2.90182,4.7053,16.7136
3442.22,6.04452,17.5,2.89537,4.71201,16.733
3446.22,6.05736,17.5,2.8881,4.71874,16.7525
3450.22,6.07059,17.5,2.88291,4.72548,16.7719
3454.22,6.08423,17.5,2.87721,4.73223,16.7913
3458.22,6.09833,17.5,2.87117,4.739,16.8108
3462.22,6.11293,17.5,2.86164,4.74579,16.8302
3466.22,6.12806,17.5,2.85584,4.75259,16.8497
3470.22,6.14378,17.5,2.84762,4.75941,16.8691
3474.22,6.16013,17.5,2.84005,4.76625,16.8886
3478.22,6.17717,17.5,2.83291,4.7731,16.908
3482.22,6.19496,17.5,2.82403,4.77998,16.9275
3486.22,6.21355,17.5,2.81771,4.78687,16.9469
3490.22,6.23302,17.5,2.80773,4.79379,16.9663
3494.22,6.25344,17.5,2.79942,4.80073,16.9858
3498.22,6.2749,17.5,2.78896,4.80769,17.0052
3502.22,6.29747,17.5,2.77812,4.81468,17.0247
3506.22,6.32127,17.5,2.76794,4.8217,17.0441
3510.22,6.34639,17.5,2.75938,4.82874,17.0636
3514.22,6.37296,17.5,2.74554,4.83581,17.083
3518.22,6.40111,17.5,2.73459,4.84291,17.1025
3522.22,6.431,17.5,2.71986,4.85004,17.1219
3526.22,6.46278,17.5,2.70855,4.85721,17.1413
3530.22,6.49665,17.5,2.69315,4.86441,17.1608
3534.22,6.53282,17.5,2.67885,4.87166,17.1802
3538.22,6.57154,17.5,2.6643,4.87894,17.1997
3542.22,6.61307,17.5,2.64732,4.88627,17.2191
3546.22,6.65775,17.5,2.62831,4.89365,17.2386
3550.22,6.70593,17.5,2.60885,4.90108,17.258
3554.22,6.75805,17.5,2.59001,4.90857,17.2775
3558.22,6.81463,17.5,2.5684,4.91611,17.2969
3562.22,6.87625,17.5,2.54591,4.92373,17.3163
3566.22,6.94366,17.5,2.52178,4.93142,17.3358
3569.3,6.99999,17.5,2.49938,4.93738,17.3507