File: output/use_case_2_0.5E.csv
Time [s],Current [A],Power [W],Voltage [V],Capacity [Ah],Energy [Wh]
0.0,0.0,0.0,4.09521,0.0,0.0
0.06,0.0,0.0,4.09714,0.0,0.0
0.12,0.0,0.0,4.09497,0.0,0.0
0.24,0.0,0.0,4.0935,0.0,0.0
0.48,0.0,0.0,4.09629,0.0,0.0
0.96,0.0,0.0,4.09466,0.0,0.0
1.92,0.0,0.0,4.09627,0.0,0.0
2.92,0.0,0.0,4.09671,0.0,0.0
3.92,0.0,0.0,4.09588,0.0,0.0
4.92,0.0,0.0,4.09654,0.0,0.0
5.92,0.0,0.0,4.09728,0.0,0.0
6.92,0.0,0.0,4.09734,0.0,0.0
7.92,0.0,0.0,4.09553,0.0,0.0
8.92,0.0,0.0,4.09644,0.0,0.0
9.92,0.0,0.0,4.09687,0.0,0.0
10.92,0.0,0.0,4.09808,0.0,0.0
11.92,0.0,0.0,4.09613,0.0,0.0
12.92,0.0,0.0,4.09898,0.0,0.0
13.92,0.0,0.0,4.09532,0.0,0.0
14.92,0.0,0.0,4.09655,0.0,0.0
15.92,0.0,0.0,4.09669,0.0,0.0
16.92,0.0,0.0,4.09907,0.0,0.0
17.92,0.0,0.0,4.09688,0.0,0.0
18.92,0.0,0.0,4.09621,0.0,0.0
19.92,0.0,0.0,4.09764,0.0,0.0
20.92,0.0,0.0,4.09755,0.0,0.0
21.92,0.0,0.0,4.09666,0.0,0.0
22.92,0.0,0.0,4.09579,0.0,0.0
23.92,0.0,0.0,4.09746,0.0,0.0
24.92,0.0,0.0,4.0973,0.0,0.0
25.92,0.0,0.0,4.09761,0.0,0.0
26.92,0.0,0.0,4.09605,0.0,0.0
27.92,0.0,0.0,4.09686,0.0,0.0
28.92,0.0,0.0,4.09634,0.0,0.0
29.92,0.0,0.0,4.09502,0.0,0.0
30.92,0.0,0.0,4.09665,0.0,0.0
31.92,0.0,0.0,4.09706,0.0,0.0
32.92,0.0,0.0,4.09663,0.0,0.0
33.92,0.0,0.0,4.09619,0.0,0.0
34.92,0.0,0.0,4.09636,0.0,0.0
35.92,0.0,0.0,4.09743,0.0,0.0
36.92,0.0,0.0,4.09591,0.0,0.0
37.92,0.0,0.0,4.09582,0.0,0.0
38.92,0.0,0.0,4.0964,0.0,0.0
39.92,0.0,0.0,4.09675,0.0,0.0
40.92,0.0,0.0,4.09664,0.0,0.0
41.92,0.0,0.0,4.09663,0.0,0.0
42.92,0.0,0.0,4.09653,0.0,0.0
43.92,0.0,0.0,4.09671,0.0,0.0
44.92,0.0,0.0,4.0961,0.0,0.0
45.92,0.0,0.0,4.09527,0.0,0.0
46.92,0.0,0.0,4.09876,0.0,0.0
47.92,0.0,0.0,4.0978,0.0,0.0
48.92,0.0,0.0,4.09862,0.0,0.0
49.92,0.0,0.0,4.09723,0.0,0.0
50.92,0.0,0.0,4.0969,0.0,0.0
51.92,0.0,0.0,4.09791,0.0,0.0
52.92,0.0,0.0,4.09596,0.0,0.0
53.92,0.0,0.0,4.09585,0.0,0.0
54.92,0.0,0.0,4.09591,0.0,0.0
55.92,0.0,0.0,4.09508,0.0,0.0
56.92,0.0,0.0,4.096,0.0,0.0
57.92,0.0,0.0,4.09515,0.0,0.0
58.92,0.0,0.0,4.09712,0.0,0.0
59.92,0.0,0.0,4.09764,0.0,0.0
60.0,0.0,0.0,4.09774,0.0,0.0
60,2.17351,8.75,4.02473,4.28992e-18,1.72701e-17
60.01,2.17351,8.75,4.02601,6.03754e-06,2.43056e-05
60.02,2.17352,8.75,4.02479,1.20751e-05,4.86111e-05
60.04,2.17352,8.75,4.02583,2.41502e-05,9.72222e-05
60.08,2.17354,8.75,4.02418,4.83006e-05,0.000194444
60.16,2.17356,8.75,4.02622,9.66019e-05,0.000388889
60.32,2.17361,8.75,4.02636,0.000193207,0.000777778
60.64,2.1737,8.75,4.02652,0.000386425,0.00155556
60.96,2.1738,8.75,4.02565,0.000579651,0.00233333
61.28,2.17389,8.75,4.02546,0.000772886,0.00311111
61.92,2.17407,8.75,4.02418,0.00115939,0.00466667
62.56,2.17424,8.75,4.02446,0.00154592,0.00622222
63.56,2.1745,8.75,4.02386,0.00214995,0.00865278
64.56,2.17475,8.75,4.02307,0.00275404,0.0110833
65.56,2.17499,8.75,4.02294,0.00335821,0.0135139
66.56,2.17522,8.75,4.02136,0.00396243,0.0159444
67.56,2.17543,8.75,4.02188,0.00456672,0.018375
68.56,2.17564,8.75,4.02184,0.00517107,0.0208056
69.56,2.17585,8.75,4.02147,0.00577547,0.0232361
70.0,2.17593,8.75,4.02111,0.00604142,0.0243056
70,0.0,0.0,4.09126,0.00604142,0.0243056
70.0368,0.0,0.0,4.08912,0.00604142,0.0243056
70.0664,0.0,0.0,4.09006,0.00604142,0.0243056
70.1255,0.0,0.0,4.09089,0.00604142,0.0243056
70.2438,0.0,0.0,4.09121,0.00604142,0.0243056
70.3622,0.0,0.0,4.08917,0.00604142,0.0243056
70.5988,0.0,0.0,4.08925,0.00604142,0.0243056
70.8354,0.0,0.0,4.09004,0.00604142,0.0243056
71.0721,0.0,0.0,4.09319,0.00604142,0.0243056
71.5454,0.0,0.0,4.09149,0.00604142,0.0243056
72.0187,0.0,0.0,4.09065,0.00604142,0.0243056
72.9652,0.0,0.0,4.09152,0.00604142,0.0243056
73.8171,0.0,0.0,4.09188,0.00604142,0.0243056
74.6691,0.0,0.0,4.09101,0.00604142,0.0243056
75.521,0.0,0.0,4.09109,0.00604142,0.0243056
76.3729,0.0,0.0,4.09119,0.00604142,0.0243056
77.3729,0.0,0.0,4.09396,0.00604142,0.0243056
78.3729,0.0,0.0,4.09421,0.00604142,0.0243056
79.3729,0.0,0.0,4.09264,0.00604142,0.0243056
80.3729,0.0,0.0,4.09272,0.00604142,0.0243056
81.3729,0.0,0.0,4.09372,0.00604142,0.0243056
82.3729,0.0,0.0,4.09156,0.00604142,0.0243056
83.3729,0.0,0.0,4.09219,0.00604142,0.0243056
84.3729,0.0,0.0,4.09288,0.00604142,0.0243056
85.3729,0.0,0.0,4.09349,0.00604142,0.0243056
86.3729,0.0,0.0,4.09309,0.00604142,0.0243056
87.3729,0.0,0.0,4.09394,0.00604142,0.0243056
88.3729,0.0,0.0,4.09437,0.00604142,0.0243056
89.3729,0.0,0.0,4.09428,0.00604142,0.0243056
90.3729,0.0,0.0,4.09577,0.00604142,0.0243056
91.3729,0.0,0.0,4.09304,0.00604142,0.0243056
92.3729,0.0,0.0,4.09423,0.00604142,0.0243056
93.3729,0.0,0.0,4.09542,0.00604142,0.0243056
94.3729,0.0,0.0,4.09414,0.00604142,0.0243056
95.3729,0.0,0.0,4.09469,0.00604142,0.0243056
96.3729,0.0,0.0,4.09452,0.00604142,0.0243056
97.3729,0.0,0.0,4.09429,0.00604142,0.0243056
98.3729,0.0,0.0,4.09301,0.00604142,0.0243056
99.3729,0.0,0.0,4.09548,0.00604142,0.0243056
100.373,0.0,0.0,4.09345,0.00604142,0.0243056
101.373,0.0,0.0,4.09375,0.00604142,0.0243056
102.373,0.0,0.0,4.09465,0.00604142,0.0243056
103.373,0.0,0.0,4.09627,0.00604142,0.0243056
104.373,0.0,0.0,4.09456,0.00604142,0.0243056
105.373,0.0,0.0,4.09599,0.00604142,0.0243056
106.373,0.0,0.0,4.09328,0.00604142,0.0243056
107.373,0.0,0.0,4.0934,0.00604142,0.0243056
108.373,0.0,0.0,4.09649,0.00604142,0.0243056
109.373,0.0,0.0,4.09428,0.00604142,0.0243056
110.373,0.0,0.0,4.09519,0.00604142,0.0243056
111.373,0.0,0.0,4.09388,0.00604142,0.0243056
112.373,0.0,0.0,4.09396,0.00604142,0.0243056
113.373,0.0,0.0,4.09529,0.00604142,0.0243056
114.373,0.0,0.0,4.0958,0.00604142,0.0243056
115.373,0.0,0.0,4.09509,0.00604142,0.0243056
116.373,0.0,0.0,4.09629,0.00604142,0.0243056
117.373,0.0,0.0,4.09405,0.00604142,0.0243056
118.373,0.0,0.0,4.09367,0.00604142,0.0243056
119.373,0.0,0.0,4.0963,0.00604142,0.0243056
120.373,0.0,0.0,4.09495,0.00604142,0.0243056
121.373,0.0,0.0,4.09472,0.00604142,0.0243056
122.373,0.0,0.0,4.09438,0.00604142,0.0243056
123.373,0.0,0.0,4.095,0.00604142,0.0243056
124.373,0.0,0.0,4.09443,0.00604142,0.0243056
125.373,0.0,0.0,4.09535,0.00604142,0.0243056
126.373,0.0,0.0,4.09581,0.00604142,0.0243056
127.373,0.0,0.0,4.09603,0.00604142,0.0243056
128.373,0.0,0.0,4.09642,0.00604142,0.0243056
129.373,0.0,0.0,4.09801,0.00604142,0.0243056
130.373,0.0,0.0,4.09683,0.00604142,0.0243056
131.373,0.0,0.0,4.09489,0.00604142,0.0243056
132.373,0.0,0.0,4.0964,0.00604142,0.0243056
133.373,0.0,0.0,4.0969,0.00604142,0.0243056
134.373,0.0,0.0,4.09506,0.00604142,0.0243056
135.373,0.0,0.0,4.09759,0.00604142,0.0243056
136.373,0.0,0.0,4.09596,0.00604142,0.0243056
137.373,0.0,0.0,4.09506,0.00604142,0.0243056
138.373,0.0,0.0,4.09478,0.00604142,0.0243056
139.373,0.0,0.0,4.09634,0.00604142,0.0243056
140.373,0.0,0.0,4.09559,0.00604142,0.0243056
141.373,0.0,0.0,4.09584,0.00604142,0.0243056
142.373,0.0,0.0,4.09668,0.00604142,0.0243056
143.373,0.0,0.0,4.09655,0.00604142,0.0243056
144.373,0.0,0.0,4.09548,0.00604142,0.0243056
145.373,0.0,0.0,4.09753,0.00604142,0.0243056
146.373,0.0,0.0,4.09692,0.00604142,0.0243056
147.373,0.0,0.0,4.0953,0.00604142,0.0243056
148.373,0.0,0.0,4.09629,0.00604142,0.0243056
149.373,0.0,0.0,4.09531,0.00604142,0.0243056
150.373,0.0,0.0,4.09634,0.00604142,0.0243056
151.373,0.0,0.0,4.09597,0.00604142,0.0243056
152.373,0.0,0.0,4.09429,0.00604142,0.0243056
153.373,0.0,0.0,4.0962,0.00604142,0.0243056
154.373,0.0,0.0,4.0947,0.00604142,0.0243056
155.373,0.0,0.0,4.09656,0.00604142,0.0243056
156.373,0.0,0.0,4.09679,0.00604142,0.0243056
157.373,0.0,0.0,4.09518,0.00604142,0.0243056
158.373,0.0,0.0,4.09505,0.00604142,0.0243056
159.373,0.0,0.0,4.09689,0.00604142,0.0243056
160.373,0.0,0.0,4.09498,0.00604142,0.0243056
161.373,0.0,0.0,4.09714,0.00604142,0.0243056
162.373,0.0,0.0,4.09711,0.00604142,0.0243056
163.373,0.0,0.0,4.09572,0.00604142,0.0243056
164.373,0.0,0.0,4.09587,0.00604142,0.0243056
165.373,0.0,0.0,4.09459,0.00604142,0.0243056
166.373,0.0,0.0,4.09612,0.00604142,0.0243056
167.373,0.0,0.0,4.0985,0.00604142,0.0243056
168.373,0.0,0.0,4.09792,0.00604142,0.0243056
169.373,0.0,0.0,4.09732,0.00604142,0.0243056
170.373,0.0,0.0,4.09652,0.00604142,0.0243056
171.373,0.0,0.0,4.09551,0.00604142,0.0243056
172.373,0.0,0.0,4.09556,0.00604142,0.0243056
173.373,0.0,0.0,4.09638,0.00604142,0.0243056
174.373,0.0,0.0,4.09654,0.00604142,0.0243056
175.373,0.0,0.0,4.09576,0.00604142,0.0243056
176.373,0.0,0.0,4.09545,0.00604142,0.0243056
177.373,0.0,0.0,4.09417,0.00604142,0.0243056
178.373,0.0,0.0,4.09709,0.00604142,0.0243056
179.373,0.0,0.0,4.09525,0.00604142,0.0243056
180.373,0.0,0.0,4.09579,0.00604142,0.0243056
181.373,0.0,0.0,4.09601,0.00604142,0.0243056
182.373,0.0,0.0,4.09579,0.00604142,0.0243056
183.373,0.0,0.0,4.09567,0.00604142,0.0243056
184.373,0.0,0.0,4.09727,0.00604142,0.0243056
185.373,0.0,0.0,4.09526,0.00604142,0.0243056
186.373,0.0,0.0,4.09615,0.00604142,0.0243056
187.373,0.0,0.0,4.09494,0.00604142,0.0243056
188.373,0.0,0.0,4.09531,0.00604142,0.0243056
189.373,0.0,0.0,4.0952,0.00604142,0.0243056
190.373,0.0,0.0,4.09501,0.00604142,0.0243056
191.373,0.0,0.0,4.09709,0.00604142,0.0243056
192.373,0.0,0.0,4.09558,0.00604142,0.0243056
193.373,0.0,0.0,4.09638,0.00604142,0.0243056
194.373,0.0,0.0,4.09725,0.00604142,0.0243056
195.373,0.0,0.0,4.09602,0.00604142,0.0243056
196.373,0.0,0.0,4.09423,0.00604142,0.0243056
197.373,0.0,0.0,4.09813,0.00604142,0.0243056
198.373,0.0,0.0,4.09771,0.00604142,0.0243056
199.373,0.0,0.0,4.097,0.00604142,0.0243056
200.373,0.0,0.0,4.09601,0.00604142,0.0243056
201.373,0.0,0.0,4.0948,0.00604142,0.0243056
202.373,0.0,0.0,4.0973,0.00604142,0.0243056
203.373,0.0,0.0,4.09649,0.00604142,0.0243056
204.373,0.0,0.0,4.09535,0.00604142,0.0243056
205.373,0.0,0.0,4.09782,0.00604142,0.0243056
206.373,0.0,0.0,4.09391,0.00604142,0.0243056
207.373,0.0,0.0,4.09652,0.00604142,0.0243056
208.373,0.0,0.0,4.09572,0.00604142,0.0243056
209.373,0.0,0.0,4.09591,0.00604142,0.0243056
210.373,0.0,0.0,4.09703,0.00604142,0.0243056
211.373,0.0,0.0,4.09704,0.00604142,0.0243056
212.373,0.0,0.0,4.09592,0.00604142,0.0243056
213.373,0.0,0.0,4.09618,0.00604142,0.0243056
214.373,0.0,0.0,4.09355,0.00604142,0.0243056
215.373,0.0,0.0,4.09637,0.00604142,0.0243056
216.373,0.0,0.0,4.09543,0.00604142,0.0243056
217.373,0.0,0.0,4.09674,0.00604142,0.0243056
218.373,0.0,0.0,4.09649,0.00604142,0.0243056
219.373,0.0,0.0,4.09596,0.00604142,0.0243056
220.373,0.0,0.0,4.09602,0.00604142,0.0243056
221.373,0.0,0.0,4.09596,0.00604142,0.0243056
222.373,0.0,0.0,4.09639,0.00604142,0.0243056
223.373,0.0,0.0,4.09779,0.00604142,0.0243056
224.373,0.0,0.0,4.09708,0.00604142,0.0243056
225.373,0.0,0.0,4.09579,0.00604142,0.0243056
226.373,0.0,0.0,4.09635,0.00604142,0.0243056
227.373,0.0,0.0,4.09575,0.00604142,0.0243056
228.373,0.0,0.0,4.09663,0.00604142,0.0243056
229.373,0.0,0.0,4.09678,0.00604142,0.0243056
230.373,0.0,0.0,4.09656,0.00604142,0.0243056
231.373,0.0,0.0,4.09655,0.00604142,0.0243056
232.373,0.0,0.0,4.09523,0.00604142,0.0243056
233.373,0.0,0.0,4.09656,0.00604142,0.0243056
234.373,0.0,0.0,4.09636,0.00604142,0.0243056
235.373,0.0,0.0,4.09644,0.00604142,0.0243056
236.373,0.0,0.0,4.09649,0.00604142,0.0243056
237.373,0.0,0.0,4.09482,0.00604142,0.0243056
238.373,0.0,0.0,4.09643,0.00604142,0.0243056
239.373,0.0,0.0,4.09649,0.00604142,0.0243056
240.373,0.0,0.0,4.09482,0.00604142,0.0243056
241.373,0.0,0.0,4.09789,0.00604142,0.0243056
242.373,0.0,0.0,4.09484,0.00604142,0.0243056
243.373,0.0,0.0,4.09624,0.00604142,0.0243056
244.373,0.0,0.0,4.09673,0.00604142,0.0243056
245.373,0.0,0.0,4.09601,0.00604142,0.0243056
246.373,0.0,0.0,4.09714,0.00604142,0.0243056
247.373,0.0,0.0,4.09732,0.00604142,0.0243056
248.373,0.0,0.0,4.09644,0.00604142,0.0243056
249.373,0.0,0.0,4.0969,0.00604142,0.0243056
250.373,0.0,0.0,4.09634,0.00604142,0.0243056
251.373,0.0,0.0,4.09669,0.00604142,0.0243056
252.373,0.0,0.0,4.09642,0.00604142,0.0243056
253.373,0.0,0.0,4.09687,0.00604142,0.0243056
254.373,0.0,0.0,4.0983,0.00604142,0.0243056
255.373,0.0,0.0,4.09647,0.00604142,0.0243056
256.373,0.0,0.0,4.09769,0.00604142,0.0243056
257.373,0.0,0.0,4.09711,0.00604142,0.0243056
258.373,0.0,0.0,4.09607,0.00604142,0.0243056
259.373,0.0,0.0,4.09525,0.00604142,0.0243056
260.373,0.0,0.0,4.09734,0.00604142,0.0243056
261.373,0.0,0.0,4.0951,0.00604142,0.0243056
262.373,0.0,0.0,4.09604,0.00604142,0.0243056
263.373,0.0,0.0,4.09587,0.00604142,0.0243056
264.373,0.0,0.0,4.09802,0.00604142,0.0243056
265.373,0.0,0.0,4.0984,0.00604142,0.0243056
266.373,0.0,0.0,4.09691,0.00604142,0.0243056
267.373,0.0,0.0,4.09362,0.00604142,0.0243056
268.373,0.0,0.0,4.09597,0.00604142,0.0243056
269.373,0.0,0.0,4.09502,0.00604142,0.0243056
270.373,0.0,0.0,4.09702,0.00604142,0.0243056
271.373,0.0,0.0,4.09717,0.00604142,0.0243056
272.373,0.0,0.0,4.09639,0.00604142,0.0243056
273.373,0.0,0.0,4.09663,0.00604142,0.0243056
274.373,0.0,0.0,4.09529,0.00604142,0.0243056
275.373,0.0,0.0,4.09608,0.00604142,0.0243056
276.373,0.0,0.0,4.09713,0.00604142,0.0243056
277.373,0.0,0.0,4.09608,0.00604142,0.0243056
278.373,0.0,0.0,4.09738,0.00604142,0.0243056
279.373,0.0,0.0,4.0969,0.00604142,0.0243056
280.373,0.0,0.0,4.09707,0.00604142,0.0243056
281.373,0.0,0.0,4.09672,0.00604142,0.0243056
282.373,0.0,0.0,4.09704,0.00604142,0.0243056
283.373,0.0,0.0,4.09603,0.00604142,0.0243056
284.373,0.0,0.0,4.09722,0.00604142,0.0243056
285.373,0.0,0.0,4.0955,0.00604142,0.0243056
286.373,0.0,0.0,4.09608,0.00604142,0.0243056
287.373,0.0,0.0,4.09583,0.00604142,0.0243056
288.373,0.0,0.0,4.09598,0.00604142,0.0243056
289.373,0.0,0.0,4.0959,0.00604142,0.0243056
290.373,0.0,0.0,4.09627,0.00604142,0.0243056
291.373,0.0,0.0,4.09643,0.00604142,0.0243056
292.373,0.0,0.0,4.09702,0.00604142,0.0243056
293.373,0.0,0.0,4.09501,0.00604142,0.0243056
294.373,0.0,0.0,4.09572,0.00604142,0.0243056
295.373,0.0,0.0,4.0959,0.00604142,0.0243056
296.373,0.0,0.0,4.09539,0.00604142,0.0243056
297.373,0.0,0.0,4.09914,0.00604142,0.0243056
298.373,0.0,0.0,4.09709,0.00604142,0.0243056
299.373,0.0,0.0,4.0971,0.00604142,0.0243056
300.373,0.0,0.0,4.09459,0.00604142,0.0243056
301.373,0.0,0.0,4.0964,0.00604142,0.0243056
302.373,0.0,0.0,4.09556,0.00604142,0.0243056
303.373,0.0,0.0,4.09537,0.00604142,0.0243056
304.373,0.0,0.0,4.09787,0.00604142,0.0243056
305.373,0.0,0.0,4.0972,0.00604142,0.0243056
306.373,0.0,0.0,4.09603,0.00604142,0.0243056
307.373,0.0,0.0,4.09551,0.00604142,0.0243056
308.373,0.0,0.0,4.096,0.00604142,0.0243056
309.373,0.0,0.0,4.09645,0.00604142,0.0243056
310.373,0.0,0.0,4.09546,0.00604142,0.0243056
311.373,0.0,0.0,4.09538,0.00604142,0.0243056
312.373,0.0,0.0,4.09519,0.00604142,0.0243056
313.373,0.0,0.0,4.09647,0.00604142,0.0243056
314.373,0.0,0.0,4.09725,0.00604142,0.0243056
315.373,0.0,0.0,4.09661,0.00604142,0.0243056
316.373,0.0,0.0,4.09731,0.00604142,0.0243056
317.373,0.0,0.0,4.09626,0.00604142,0.0243056
318.373,0.0,0.0,4.09405,0.00604142,0.0243056
319.373,0.0,0.0,4.09648,0.00604142,0.0243056
320.373,0.0,0.0,4.09651,0.00604142,0.0243056
321.373,0.0,0.0,4.09689,0.00604142,0.0243056
322.373,0.0,0.0,4.09773,0.00604142,0.0243056
323.373,0.0,0.0,4.09822,0.00604142,0.0243056
324.373,0.0,0.0,4.09699,0.00604142,0.0243056
325.373,0.0,0.0,4.09697,0.00604142,0.0243056
326.373,0.0,0.0,4.09708,0.00604142,0.0243056
327.373,0.0,0.0,4.09678,0.00604142,0.0243056
328.373,0.0,0.0,4.09688,0.00604142,0.0243056
329.373,0.0,0.0,4.09465,0.00604142,0.0243056
330.373,0.0,0.0,4.09601,0.00604142,0.0243056
331.373,0.0,0.0,4.09395,0.00604142,0.0243056
332.373,0.0,0.0,4.09666,0.00604142,0.0243056
333.373,0.0,0.0,4.09686,0.00604142,0.0243056
334.373,0.0,0.0,4.09601,0.00604142,0.0243056
335.373,0.0,0.0,4.09707,0.00604142,0.0243056
336.373,0.0,0.0,4.09576,0.00604142,0.0243056
337.373,0.0,0.0,4.09652,0.00604142,0.0243056
338.373,0.0,0.0,4.09729,0.00604142,0.0243056
339.373,0.0,0.0,4.09495,0.00604142,0.0243056
340.373,0.0,0.0,4.094,0.00604142,0.0243056
341.373,0.0,0.0,4.09435,0.00604142,0.0243056
342.373,0.0,0.0,4.097,0.00604142,0.0243056
343.373,0.0,0.0,4.09721,0.00604142,0.0243056
344.373,0.0,0.0,4.09867,0.00604142,0.0243056
345.373,0.0,0.0,4.09643,0.00604142,0.0243056
346.373,0.0,0.0,4.09736,0.00604142,0.0243056
347.373,0.0,0.0,4.0964,0.00604142,0.0243056
348.373,0.0,0.0,4.09665,0.00604142,0.0243056
349.373,0.0,0.0,4.09489,0.00604142,0.0243056
350.373,0.0,0.0,4.09681,0.00604142,0.0243056
351.373,0.0,0.0,4.09692,0.00604142,0.0243056
352.373,0.0,0.0,4.095,0.00604142,0.0243056
353.373,0.0,0.0,4.09821,0.00604142,0.0243056
354.373,0.0,0.0,4.09726,0.00604142,0.0243056
355.373,0.0,0.0,4.09713,0.00604142,0.0243056
356.373,0.0,0.0,4.09644,0.00604142,0.0243056
357.373,0.0,0.0,4.09595,0.00604142,0.0243056
358.373,0.0,0.0,4.09619,0.00604142,0.0243056
359.373,0.0,0.0,4.09698,0.00604142,0.0243056
360.373,0.0,0.0,4.09629,0.00604142,0.0243056
361.373,0.0,0.0,4.09669,0.00604142,0.0243056
362.373,0.0,0.0,4.09798,0.00604142,0.0243056
363.373,0.0,0.0,4.09667,0.00604142,0.0243056
364.373,0.0,0.0,4.09495,0.00604142,0.0243056
365.373,0.0,0.0,4.09655,0.00604142,0.0243056
366.373,0.0,0.0,4.09653,0.00604142,0.0243056
367.373,0.0,0.0,4.09702,0.00604142,0.0243056
368.373,0.0,0.0,4.09733,0.00604142,0.0243056
369.373,0.0,0.0,4.09559,0.00604142,0.0243056
370.0,0.0,0.0,4.09601,0.00604142,0.0243056