File: output/use_case_2_10.0E.csv
Time [s],Current [A],Power [W],Voltage [V],Capacity [Ah],Energy [Wh]
0.0,0.0,0.0,4.09673,0.0,0.0
0.06,0.0,0.0,4.09596,0.0,0.0
0.12,0.0,0.0,4.09697,0.0,0.0
0.24,0.0,0.0,4.09845,0.0,0.0
0.48,0.0,0.0,4.0977,0.0,0.0
0.96,0.0,0.0,4.09678,0.0,0.0
1.92,0.0,0.0,4.09572,0.0,0.0
2.92,0.0,0.0,4.09627,0.0,0.0
3.92,0.0,0.0,4.09756,0.0,0.0
4.92,0.0,0.0,4.09634,0.0,0.0
5.92,0.0,0.0,4.09621,0.0,0.0
6.92,0.0,0.0,4.0989,0.0,0.0
7.92,0.0,0.0,4.096,0.0,0.0
8.92,0.0,0.0,4.09725,0.0,0.0
9.92,0.0,0.0,4.09973,0.0,0.0
10.92,0.0,0.0,4.09727,0.0,0.0
11.92,0.0,0.0,4.09701,0.0,0.0
12.92,0.0,0.0,4.09572,0.0,0.0
13.92,0.0,0.0,4.09721,0.0,0.0
14.92,0.0,0.0,4.09626,0.0,0.0
15.92,0.0,0.0,4.09709,0.0,0.0
16.92,0.0,0.0,4.09646,0.0,0.0
17.92,0.0,0.0,4.09716,0.0,0.0
18.92,0.0,0.0,4.09815,0.0,0.0
19.92,0.0,0.0,4.09594,0.0,0.0
20.92,0.0,0.0,4.09656,0.0,0.0
21.92,0.0,0.0,4.09605,0.0,0.0
22.92,0.0,0.0,4.09717,0.0,0.0
23.92,0.0,0.0,4.09646,0.0,0.0
24.92,0.0,0.0,4.0964,0.0,0.0
25.92,0.0,0.0,4.09656,0.0,0.0
26.92,0.0,0.0,4.09673,0.0,0.0
27.92,0.0,0.0,4.09572,0.0,0.0
28.92,0.0,0.0,4.09556,0.0,0.0
29.92,0.0,0.0,4.09644,0.0,0.0
30.92,0.0,0.0,4.09589,0.0,0.0
31.92,0.0,0.0,4.09703,0.0,0.0
32.92,0.0,0.0,4.09591,0.0,0.0
33.92,0.0,0.0,4.09605,0.0,0.0
34.92,0.0,0.0,4.09666,0.0,0.0
35.92,0.0,0.0,4.09756,0.0,0.0
36.92,0.0,0.0,4.09735,0.0,0.0
37.92,0.0,0.0,4.09721,0.0,0.0
38.92,0.0,0.0,4.0961,0.0,0.0
39.92,0.0,0.0,4.09704,0.0,0.0
40.92,0.0,0.0,4.09717,0.0,0.0
41.92,0.0,0.0,4.09695,0.0,0.0
42.92,0.0,0.0,4.09697,0.0,0.0
43.92,0.0,0.0,4.09642,0.0,0.0
44.92,0.0,0.0,4.09665,0.0,0.0
45.92,0.0,0.0,4.09638,0.0,0.0
46.92,0.0,0.0,4.09723,0.0,0.0
47.92,0.0,0.0,4.09549,0.0,0.0
48.92,0.0,0.0,4.09637,0.0,0.0
49.92,0.0,0.0,4.09736,0.0,0.0
50.92,0.0,0.0,4.0951,0.0,0.0
51.92,0.0,0.0,4.09782,0.0,0.0
52.92,0.0,0.0,4.09716,0.0,0.0
53.92,0.0,0.0,4.09511,0.0,0.0
54.92,0.0,0.0,4.09691,0.0,0.0
55.92,0.0,0.0,4.09668,0.0,0.0
56.92,0.0,0.0,4.09711,0.0,0.0
57.92,0.0,0.0,4.09672,0.0,0.0
58.92,0.0,0.0,4.09756,0.0,0.0
59.92,0.0,0.0,4.0966,0.0,0.0
60.0,0.0,0.0,4.09587,0.0,0.0
60,48.6785,175.03,3.59518,9.60783e-17,3.45462e-16
60.0007,48.6787,175.03,3.59496,9.43851e-06,3.39373e-05
60.0014,48.6788,175.03,3.59507,1.8877e-05,6.78746e-05
60.0028,48.6791,175.03,3.59611,3.77542e-05,0.000135749
60.0056,48.6798,175.03,3.59492,7.55091e-05,0.000271498
60.0112,48.681,175.03,3.59604,0.000151021,0.000542997
60.0223,48.6834,175.03,3.59514,0.000302051,0.00108599
60.0447,48.6881,175.03,3.59557,0.000604142,0.00217199
60.067,48.6927,175.03,3.59512,0.000906261,0.00325798
60.0893,48.6973,175.03,3.59378,0.00120841,0.00434397
60.1117,48.7019,175.03,3.59365,0.00151059,0.00542997
60.1564,48.711,175.03,3.59304,0.00211505,0.00760195
60.201,48.7201,175.03,3.59383,0.00271963,0.00977394
60.2457,48.7292,175.03,3.59335,0.00332432,0.0119459
60.335,48.7478,175.03,3.59041,0.00453417,0.0162899
60.4244,48.7668,175.03,3.58923,0.00574448,0.0206339
60.5137,48.7865,175.03,3.58792,0.00695529,0.0249778
60.6031,48.8069,175.03,3.58522,0.0081666,0.0293218
60.7818,48.8504,175.03,3.58486,0.0105914,0.0380098
60.9605,48.8979,175.03,3.57946,0.0130185,0.0466977
61.1392,48.95,175.03,3.57528,0.0154482,0.0553856
61.3179,49.0064,175.03,3.56965,0.0178808,0.0640736
61.4966,49.0675,175.03,3.56886,0.0203163,0.0727615
61.6752,49.1326,175.03,3.56204,0.0227551,0.0814495
61.8539,49.2022,175.03,3.5562,0.0251974,0.0901374
62.0326,49.2757,175.03,3.55134,0.0276433,0.0988254
62.2113,49.3531,175.03,3.54715,0.030093,0.107513
62.5687,49.5196,175.03,3.53411,0.035009,0.124889
62.9261,49.7023,175.03,3.52175,0.0399431,0.142265
63.2835,49.9037,175.03,3.50718,0.0448972,0.159641
63.6051,50.1025,175.03,3.49359,0.0493737,0.175279
63.9268,50.3183,175.03,3.47925,0.0538695,0.190918
64.1488,50.4732,175.03,3.46754,0.056983,0.201714
64.3709,50.6326,175.03,3.45858,0.0601063,0.212511
64.8151,50.9638,175.03,3.43506,0.0663938,0.234105
65.2148,51.2765,175.03,3.41397,0.0720873,0.25354
65.6145,51.6045,175.03,3.39255,0.0778172,0.272974
66.0142,51.9457,175.03,3.3687,0.083585,0.292409
66.374,52.2624,175.03,3.34968,0.0888076,0.3099
66.7337,52.5894,175.03,3.32739,0.094063,0.327391
67.0935,52.9335,175.03,3.30683,0.0993527,0.344881
67.4173,53.2606,175.03,3.28521,0.104143,0.360623
67.741,53.6078,175.028,3.26652,0.108964,0.376365
68.0648,53.9815,175.026,3.24243,0.113819,0.392107
68.3886,54.3936,175.028,3.21903,0.118711,0.407848
68.7124,54.8534,175.031,3.19193,0.123645,0.42359
69.0362,55.3726,175.029,3.16113,0.128625,0.439332
69.3599,55.9723,175.028,3.12585,0.133659,0.455074
69.5836,56.4493,175.03,3.09999,0.137166,0.465947
69.8072,56.9827,175.03,3.07226,0.140705,0.47682
69.9584,57.3818,175.03,3.0505,0.143116,0.484173
70.0,57.498,175.03,3.04275,0.14378,0.486194
70,0.0,0.0,3.75354,0.14378,0.486194
70.0003,0.0,0.0,3.75524,0.14378,0.486194
70.0007,0.0,0.0,3.75587,0.14378,0.486194
70.0014,0.0,0.0,3.75401,0.14378,0.486194
70.0027,0.0,0.0,3.75494,0.14378,0.486194
70.0054,0.0,0.0,3.75632,0.14378,0.486194
70.0108,0.0,0.0,3.75687,0.14378,0.486194
70.0162,0.0,0.0,3.75866,0.14378,0.486194
70.027,0.0,0.0,3.75927,0.14378,0.486194
70.0379,0.0,0.0,3.75682,0.14378,0.486194
70.0487,0.0,0.0,3.75972,0.14378,0.486194
70.0595,0.0,0.0,3.76141,0.14378,0.486194
70.0811,0.0,0.0,3.76289,0.14378,0.486194
70.1028,0.0,0.0,3.76399,0.14378,0.486194
70.146,0.0,0.0,3.7679,0.14378,0.486194
70.182,0.0,0.0,3.77006,0.14378,0.486194
70.2179,0.0,0.0,3.77446,0.14378,0.486194
70.2538,0.0,0.0,3.77549,0.14378,0.486194
70.2897,0.0,0.0,3.7777,0.14378,0.486194
70.3615,0.0,0.0,3.78283,0.14378,0.486194
70.4334,0.0,0.0,3.78544,0.14378,0.486194
70.5052,0.0,0.0,3.78964,0.14378,0.486194
70.577,0.0,0.0,3.7948,0.14378,0.486194
70.6489,0.0,0.0,3.79784,0.14378,0.486194
70.7207,0.0,0.0,3.80169,0.14378,0.486194
70.7854,0.0,0.0,3.80546,0.14378,0.486194
70.85,0.0,0.0,3.80745,0.14378,0.486194
70.9147,0.0,0.0,3.8108,0.14378,0.486194
70.9793,0.0,0.0,3.81308,0.14378,0.486194
71.044,0.0,0.0,3.81384,0.14378,0.486194
71.1086,0.0,0.0,3.81829,0.14378,0.486194
71.1733,0.0,0.0,3.81816,0.14378,0.486194
71.2379,0.0,0.0,3.82054,0.14378,0.486194
71.3025,0.0,0.0,3.82562,0.14378,0.486194
71.3672,0.0,0.0,3.82566,0.14378,0.486194
71.4318,0.0,0.0,3.82763,0.14378,0.486194
71.4965,0.0,0.0,3.83102,0.14378,0.486194
71.6258,0.0,0.0,3.8379,0.14378,0.486194
71.7551,0.0,0.0,3.84122,0.14378,0.486194
71.8844,0.0,0.0,3.84471,0.14378,0.486194
72.0137,0.0,0.0,3.84739,0.14378,0.486194
72.143,0.0,0.0,3.85102,0.14378,0.486194
72.2723,0.0,0.0,3.8511,0.14378,0.486194
72.4016,0.0,0.0,3.85617,0.14378,0.486194
72.5309,0.0,0.0,3.85991,0.14378,0.486194
72.6602,0.0,0.0,3.86255,0.14378,0.486194
72.7895,0.0,0.0,3.86402,0.14378,0.486194
72.9188,0.0,0.0,3.86866,0.14378,0.486194
73.0481,0.0,0.0,3.86989,0.14378,0.486194
73.1774,0.0,0.0,3.87299,0.14378,0.486194
73.3067,0.0,0.0,3.87472,0.14378,0.486194
73.436,0.0,0.0,3.87666,0.14378,0.486194
73.6946,0.0,0.0,3.88172,0.14378,0.486194
73.9532,0.0,0.0,3.8845,0.14378,0.486194
74.2118,0.0,0.0,3.89209,0.14378,0.486194
74.4704,0.0,0.0,3.89262,0.14378,0.486194
74.729,0.0,0.0,3.89877,0.14378,0.486194
74.9875,0.0,0.0,3.90062,0.14378,0.486194
75.2461,0.0,0.0,3.90529,0.14378,0.486194
75.5047,0.0,0.0,3.9097,0.14378,0.486194
75.7633,0.0,0.0,3.91102,0.14378,0.486194
76.0219,0.0,0.0,3.91508,0.14378,0.486194
76.2805,0.0,0.0,3.91666,0.14378,0.486194
76.5391,0.0,0.0,3.92034,0.14378,0.486194
76.7977,0.0,0.0,3.9224,0.14378,0.486194
77.0563,0.0,0.0,3.92503,0.14378,0.486194
77.3149,0.0,0.0,3.92671,0.14378,0.486194
77.5735,0.0,0.0,3.92967,0.14378,0.486194
77.8321,0.0,0.0,3.93269,0.14378,0.486194
78.0907,0.0,0.0,3.93571,0.14378,0.486194
78.3493,0.0,0.0,3.93798,0.14378,0.486194
78.6079,0.0,0.0,3.94001,0.14378,0.486194
78.8665,0.0,0.0,3.94303,0.14378,0.486194
79.1251,0.0,0.0,3.94389,0.14378,0.486194
79.6423,0.0,0.0,3.94828,0.14378,0.486194
80.1595,0.0,0.0,3.95118,0.14378,0.486194
80.6767,0.0,0.0,3.95611,0.14378,0.486194
81.1939,0.0,0.0,3.95929,0.14378,0.486194
81.7111,0.0,0.0,3.96349,0.14378,0.486194
82.2282,0.0,0.0,3.96657,0.14378,0.486194
83.2282,0.0,0.0,3.97098,0.14378,0.486194
84.1282,0.0,0.0,3.97823,0.14378,0.486194
85.0282,0.0,0.0,3.98221,0.14378,0.486194
85.9282,0.0,0.0,3.98452,0.14378,0.486194
86.8282,0.0,0.0,3.98863,0.14378,0.486194
87.7282,0.0,0.0,3.99267,0.14378,0.486194
88.6282,0.0,0.0,3.99733,0.14378,0.486194
89.5282,0.0,0.0,3.99948,0.14378,0.486194
90.4282,0.0,0.0,4.00125,0.14378,0.486194
91.3282,0.0,0.0,4.00491,0.14378,0.486194
92.3282,0.0,0.0,4.0079,0.14378,0.486194
93.3282,0.0,0.0,4.0124,0.14378,0.486194
94.3282,0.0,0.0,4.01375,0.14378,0.486194
95.3282,0.0,0.0,4.01647,0.14378,0.486194
96.3282,0.0,0.0,4.01968,0.14378,0.486194
97.3282,0.0,0.0,4.02098,0.14378,0.486194
98.3282,0.0,0.0,4.02337,0.14378,0.486194
99.3282,0.0,0.0,4.02319,0.14378,0.486194
100.328,0.0,0.0,4.02884,0.14378,0.486194
101.328,0.0,0.0,4.0289,0.14378,0.486194
102.328,0.0,0.0,4.03305,0.14378,0.486194
103.328,0.0,0.0,4.03126,0.14378,0.486194
104.328,0.0,0.0,4.03431,0.14378,0.486194
105.328,0.0,0.0,4.03467,0.14378,0.486194
106.328,0.0,0.0,4.03813,0.14378,0.486194
107.328,0.0,0.0,4.0377,0.14378,0.486194
108.328,0.0,0.0,4.04192,0.14378,0.486194
109.328,0.0,0.0,4.04156,0.14378,0.486194
110.328,0.0,0.0,4.04222,0.14378,0.486194
111.328,0.0,0.0,4.04327,0.14378,0.486194
112.328,0.0,0.0,4.04636,0.14378,0.486194
113.328,0.0,0.0,4.04391,0.14378,0.486194
114.328,0.0,0.0,4.04685,0.14378,0.486194
115.328,0.0,0.0,4.04844,0.14378,0.486194
116.328,0.0,0.0,4.0478,0.14378,0.486194
117.328,0.0,0.0,4.05092,0.14378,0.486194
118.328,0.0,0.0,4.04979,0.14378,0.486194
119.328,0.0,0.0,4.05051,0.14378,0.486194
120.328,0.0,0.0,4.05285,0.14378,0.486194
121.328,0.0,0.0,4.05357,0.14378,0.486194
122.328,0.0,0.0,4.05461,0.14378,0.486194
123.328,0.0,0.0,4.05651,0.14378,0.486194
124.328,0.0,0.0,4.05532,0.14378,0.486194
125.328,0.0,0.0,4.05689,0.14378,0.486194
126.328,0.0,0.0,4.05805,0.14378,0.486194
127.328,0.0,0.0,4.05792,0.14378,0.486194
128.328,0.0,0.0,4.05838,0.14378,0.486194
129.328,0.0,0.0,4.05927,0.14378,0.486194
130.328,0.0,0.0,4.05864,0.14378,0.486194
131.328,0.0,0.0,4.06064,0.14378,0.486194
132.328,0.0,0.0,4.06136,0.14378,0.486194
133.328,0.0,0.0,4.06076,0.14378,0.486194
134.328,0.0,0.0,4.06415,0.14378,0.486194
135.328,0.0,0.0,4.06254,0.14378,0.486194
136.328,0.0,0.0,4.06369,0.14378,0.486194
137.328,0.0,0.0,4.06319,0.14378,0.486194
138.328,0.0,0.0,4.06444,0.14378,0.486194
139.328,0.0,0.0,4.06453,0.14378,0.486194
140.328,0.0,0.0,4.06646,0.14378,0.486194
141.328,0.0,0.0,4.06718,0.14378,0.486194
142.328,0.0,0.0,4.06784,0.14378,0.486194
143.328,0.0,0.0,4.06677,0.14378,0.486194
144.328,0.0,0.0,4.06496,0.14378,0.486194
145.328,0.0,0.0,4.06922,0.14378,0.486194
146.328,0.0,0.0,4.0677,0.14378,0.486194
147.328,0.0,0.0,4.06847,0.14378,0.486194
148.328,0.0,0.0,4.06961,0.14378,0.486194
149.328,0.0,0.0,4.0681,0.14378,0.486194
150.328,0.0,0.0,4.07004,0.14378,0.486194
151.328,0.0,0.0,4.06959,0.14378,0.486194
152.328,0.0,0.0,4.07142,0.14378,0.486194
153.328,0.0,0.0,4.07033,0.14378,0.486194
154.328,0.0,0.0,4.07133,0.14378,0.486194
155.328,0.0,0.0,4.07204,0.14378,0.486194
156.328,0.0,0.0,4.07041,0.14378,0.486194
157.328,0.0,0.0,4.07081,0.14378,0.486194
158.328,0.0,0.0,4.07064,0.14378,0.486194
159.328,0.0,0.0,4.07213,0.14378,0.486194
160.328,0.0,0.0,4.07208,0.14378,0.486194
161.328,0.0,0.0,4.07357,0.14378,0.486194
162.328,0.0,0.0,4.07826,0.14378,0.486194
163.328,0.0,0.0,4.07385,0.14378,0.486194
164.328,0.0,0.0,4.07436,0.14378,0.486194
165.328,0.0,0.0,4.07465,0.14378,0.486194
166.328,0.0,0.0,4.07509,0.14378,0.486194
167.328,0.0,0.0,4.07583,0.14378,0.486194
168.328,0.0,0.0,4.07538,0.14378,0.486194
169.328,0.0,0.0,4.07593,0.14378,0.486194
170.328,0.0,0.0,4.07558,0.14378,0.486194
171.328,0.0,0.0,4.07566,0.14378,0.486194
172.328,0.0,0.0,4.07631,0.14378,0.486194
173.328,0.0,0.0,4.07599,0.14378,0.486194
174.328,0.0,0.0,4.07618,0.14378,0.486194
175.328,0.0,0.0,4.07501,0.14378,0.486194
176.328,0.0,0.0,4.07802,0.14378,0.486194
177.328,0.0,0.0,4.07666,0.14378,0.486194
178.328,0.0,0.0,4.07782,0.14378,0.486194
179.328,0.0,0.0,4.07685,0.14378,0.486194
180.328,0.0,0.0,4.07774,0.14378,0.486194
181.328,0.0,0.0,4.0767,0.14378,0.486194
182.328,0.0,0.0,4.07868,0.14378,0.486194
183.328,0.0,0.0,4.0779,0.14378,0.486194
184.328,0.0,0.0,4.07729,0.14378,0.486194
185.328,0.0,0.0,4.07669,0.14378,0.486194
186.328,0.0,0.0,4.07843,0.14378,0.486194
187.328,0.0,0.0,4.07827,0.14378,0.486194
188.328,0.0,0.0,4.07842,0.14378,0.486194
189.328,0.0,0.0,4.07986,0.14378,0.486194
190.328,0.0,0.0,4.08115,0.14378,0.486194
191.328,0.0,0.0,4.08045,0.14378,0.486194
192.328,0.0,0.0,4.08009,0.14378,0.486194
193.328,0.0,0.0,4.07949,0.14378,0.486194
194.328,0.0,0.0,4.0777,0.14378,0.486194
195.328,0.0,0.0,4.08128,0.14378,0.486194
196.328,0.0,0.0,4.08079,0.14378,0.486194
197.328,0.0,0.0,4.07973,0.14378,0.486194
198.328,0.0,0.0,4.08013,0.14378,0.486194
199.328,0.0,0.0,4.08099,0.14378,0.486194
200.328,0.0,0.0,4.07826,0.14378,0.486194
201.328,0.0,0.0,4.08014,0.14378,0.486194
202.328,0.0,0.0,4.08154,0.14378,0.486194
203.328,0.0,0.0,4.08034,0.14378,0.486194
204.328,0.0,0.0,4.07911,0.14378,0.486194
205.328,0.0,0.0,4.08099,0.14378,0.486194
206.328,0.0,0.0,4.08222,0.14378,0.486194
207.328,0.0,0.0,4.07873,0.14378,0.486194
208.328,0.0,0.0,4.08109,0.14378,0.486194
209.328,0.0,0.0,4.08363,0.14378,0.486194
210.328,0.0,0.0,4.0821,0.14378,0.486194
211.328,0.0,0.0,4.08048,0.14378,0.486194
212.328,0.0,0.0,4.08143,0.14378,0.486194
213.328,0.0,0.0,4.08135,0.14378,0.486194
214.328,0.0,0.0,4.08047,0.14378,0.486194
215.328,0.0,0.0,4.08092,0.14378,0.486194
216.328,0.0,0.0,4.08124,0.14378,0.486194
217.328,0.0,0.0,4.08089,0.14378,0.486194
218.328,0.0,0.0,4.08274,0.14378,0.486194
219.328,0.0,0.0,4.08276,0.14378,0.486194
220.328,0.0,0.0,4.07915,0.14378,0.486194
221.328,0.0,0.0,4.08159,0.14378,0.486194
222.328,0.0,0.0,4.08344,0.14378,0.486194
223.328,0.0,0.0,4.08236,0.14378,0.486194
224.328,0.0,0.0,4.08215,0.14378,0.486194
225.328,0.0,0.0,4.08406,0.14378,0.486194
226.328,0.0,0.0,4.08312,0.14378,0.486194
227.328,0.0,0.0,4.08275,0.14378,0.486194
228.328,0.0,0.0,4.08291,0.14378,0.486194
229.328,0.0,0.0,4.08152,0.14378,0.486194
230.328,0.0,0.0,4.08326,0.14378,0.486194
231.328,0.0,0.0,4.0828,0.14378,0.486194
232.328,0.0,0.0,4.08223,0.14378,0.486194
233.328,0.0,0.0,4.08311,0.14378,0.486194
234.328,0.0,0.0,4.08343,0.14378,0.486194
235.328,0.0,0.0,4.08354,0.14378,0.486194
236.328,0.0,0.0,4.08397,0.14378,0.486194
237.328,0.0,0.0,4.08399,0.14378,0.486194
238.328,0.0,0.0,4.08464,0.14378,0.486194
239.328,0.0,0.0,4.08297,0.14378,0.486194
240.328,0.0,0.0,4.08355,0.14378,0.486194
241.328,0.0,0.0,4.08183,0.14378,0.486194
242.328,0.0,0.0,4.08412,0.14378,0.486194
243.328,0.0,0.0,4.0834,0.14378,0.486194
244.328,0.0,0.0,4.0854,0.14378,0.486194
245.328,0.0,0.0,4.08411,0.14378,0.486194
246.328,0.0,0.0,4.0846,0.14378,0.486194
247.328,0.0,0.0,4.08393,0.14378,0.486194
248.328,0.0,0.0,4.08404,0.14378,0.486194
249.328,0.0,0.0,4.08443,0.14378,0.486194
250.328,0.0,0.0,4.08324,0.14378,0.486194
251.328,0.0,0.0,4.08158,0.14378,0.486194
252.328,0.0,0.0,4.08348,0.14378,0.486194
253.328,0.0,0.0,4.0838,0.14378,0.486194
254.328,0.0,0.0,4.08497,0.14378,0.486194
255.328,0.0,0.0,4.08432,0.14378,0.486194
256.328,0.0,0.0,4.08431,0.14378,0.486194
257.328,0.0,0.0,4.08542,0.14378,0.486194
258.328,0.0,0.0,4.08372,0.14378,0.486194
259.328,0.0,0.0,4.0834,0.14378,0.486194
260.328,0.0,0.0,4.08276,0.14378,0.486194
261.328,0.0,0.0,4.08482,0.14378,0.486194
262.328,0.0,0.0,4.08479,0.14378,0.486194
263.328,0.0,0.0,4.08276,0.14378,0.486194
264.328,0.0,0.0,4.08314,0.14378,0.486194
265.328,0.0,0.0,4.08267,0.14378,0.486194
266.328,0.0,0.0,4.08618,0.14378,0.486194
267.328,0.0,0.0,4.08291,0.14378,0.486194
268.328,0.0,0.0,4.0853,0.14378,0.486194
269.328,0.0,0.0,4.0845,0.14378,0.486194
270.328,0.0,0.0,4.08478,0.14378,0.486194
271.328,0.0,0.0,4.08362,0.14378,0.486194
272.328,0.0,0.0,4.08398,0.14378,0.486194
273.328,0.0,0.0,4.08415,0.14378,0.486194
274.328,0.0,0.0,4.08412,0.14378,0.486194
275.328,0.0,0.0,4.08406,0.14378,0.486194
276.328,0.0,0.0,4.08453,0.14378,0.486194
277.328,0.0,0.0,4.08427,0.14378,0.486194
278.328,0.0,0.0,4.08607,0.14378,0.486194
279.328,0.0,0.0,4.08502,0.14378,0.486194
280.328,0.0,0.0,4.08534,0.14378,0.486194
281.328,0.0,0.0,4.08456,0.14378,0.486194
282.328,0.0,0.0,4.08575,0.14378,0.486194
283.328,0.0,0.0,4.08648,0.14378,0.486194
284.328,0.0,0.0,4.08422,0.14378,0.486194
285.328,0.0,0.0,4.08452,0.14378,0.486194
286.328,0.0,0.0,4.08433,0.14378,0.486194
287.328,0.0,0.0,4.08445,0.14378,0.486194
288.328,0.0,0.0,4.08727,0.14378,0.486194
289.328,0.0,0.0,4.08547,0.14378,0.486194
290.328,0.0,0.0,4.08426,0.14378,0.486194
291.328,0.0,0.0,4.08527,0.14378,0.486194
292.328,0.0,0.0,4.08665,0.14378,0.486194
293.328,0.0,0.0,4.0855,0.14378,0.486194
294.328,0.0,0.0,4.08509,0.14378,0.486194
295.328,0.0,0.0,4.08503,0.14378,0.486194
296.328,0.0,0.0,4.08655,0.14378,0.486194
297.328,0.0,0.0,4.08512,0.14378,0.486194
298.328,0.0,0.0,4.08699,0.14378,0.486194
299.328,0.0,0.0,4.08508,0.14378,0.486194
300.328,0.0,0.0,4.0865,0.14378,0.486194
301.328,0.0,0.0,4.08627,0.14378,0.486194
302.328,0.0,0.0,4.08636,0.14378,0.486194
303.328,0.0,0.0,4.08385,0.14378,0.486194
304.328,0.0,0.0,4.08597,0.14378,0.486194
305.328,0.0,0.0,4.08573,0.14378,0.486194
306.328,0.0,0.0,4.0855,0.14378,0.486194
307.328,0.0,0.0,4.08705,0.14378,0.486194
308.328,0.0,0.0,4.08703,0.14378,0.486194
309.328,0.0,0.0,4.08598,0.14378,0.486194
310.328,0.0,0.0,4.08517,0.14378,0.486194
311.328,0.0,0.0,4.08442,0.14378,0.486194
312.328,0.0,0.0,4.08598,0.14378,0.486194
313.328,0.0,0.0,4.08404,0.14378,0.486194
314.328,0.0,0.0,4.08615,0.14378,0.486194
315.328,0.0,0.0,4.08512,0.14378,0.486194
316.328,0.0,0.0,4.08574,0.14378,0.486194
317.328,0.0,0.0,4.08677,0.14378,0.486194
318.328,0.0,0.0,4.08495,0.14378,0.486194
319.328,0.0,0.0,4.08684,0.14378,0.486194
320.328,0.0,0.0,4.08533,0.14378,0.486194
321.328,0.0,0.0,4.08679,0.14378,0.486194
322.328,0.0,0.0,4.08689,0.14378,0.486194
323.328,0.0,0.0,4.08658,0.14378,0.486194
324.328,0.0,0.0,4.08588,0.14378,0.486194
325.328,0.0,0.0,4.08441,0.14378,0.486194
326.328,0.0,0.0,4.08666,0.14378,0.486194
327.328,0.0,0.0,4.08489,0.14378,0.486194
328.328,0.0,0.0,4.08495,0.14378,0.486194
329.328,0.0,0.0,4.08687,0.14378,0.486194
330.328,0.0,0.0,4.08449,0.14378,0.486194
331.328,0.0,0.0,4.08539,0.14378,0.486194
332.328,0.0,0.0,4.08647,0.14378,0.486194
333.328,0.0,0.0,4.08718,0.14378,0.486194
334.328,0.0,0.0,4.08633,0.14378,0.486194
335.328,0.0,0.0,4.08646,0.14378,0.486194
336.328,0.0,0.0,4.08706,0.14378,0.486194
337.328,0.0,0.0,4.08602,0.14378,0.486194
338.328,0.0,0.0,4.08664,0.14378,0.486194
339.328,0.0,0.0,4.08561,0.14378,0.486194
340.328,0.0,0.0,4.08556,0.14378,0.486194
341.328,0.0,0.0,4.08597,0.14378,0.486194
342.328,0.0,0.0,4.08793,0.14378,0.486194
343.328,0.0,0.0,4.08769,0.14378,0.486194
344.328,0.0,0.0,4.08596,0.14378,0.486194
345.328,0.0,0.0,4.08734,0.14378,0.486194
346.328,0.0,0.0,4.08738,0.14378,0.486194
347.328,0.0,0.0,4.08556,0.14378,0.486194
348.328,0.0,0.0,4.08676,0.14378,0.486194
349.328,0.0,0.0,4.08626,0.14378,0.486194
350.328,0.0,0.0,4.08598,0.14378,0.486194
351.328,0.0,0.0,4.0869,0.14378,0.486194
352.328,0.0,0.0,4.08488,0.14378,0.486194
353.328,0.0,0.0,4.08815,0.14378,0.486194
354.328,0.0,0.0,4.08623,0.14378,0.486194
355.328,0.0,0.0,4.08674,0.14378,0.486194
356.328,0.0,0.0,4.08676,0.14378,0.486194
357.328,0.0,0.0,4.0879,0.14378,0.486194
358.328,0.0,0.0,4.08781,0.14378,0.486194
359.328,0.0,0.0,4.08575,0.14378,0.486194
360.328,0.0,0.0,4.08669,0.14378,0.486194
361.328,0.0,0.0,4.08586,0.14378,0.486194
362.328,0.0,0.0,4.08543,0.14378,0.486194
363.328,0.0,0.0,4.08745,0.14378,0.486194
364.328,0.0,0.0,4.08586,0.14378,0.486194
365.328,0.0,0.0,4.08564,0.14378,0.486194
366.328,0.0,0.0,4.0871,0.14378,0.486194
367.328,0.0,0.0,4.08775,0.14378,0.486194
368.328,0.0,0.0,4.08701,0.14378,0.486194
369.328,0.0,0.0,4.08786,0.14378,0.486194
370.0,0.0,0.0,4.08588,0.14378,0.486194