File: output/use_case_1_2.0E.csv
Time [s],Current [A],Power [W],Voltage [V],Capacity [Ah],Energy [Wh]
0.0,8.75733,35.01,3.9997,0.0,0.0
0.00800476,8.75751,35.01,3.99771,1.94726e-05,7.78463e-05
0.032019,8.75804,35.01,3.99905,7.78935e-05,0.000311385
0.128076,8.76016,35.01,3.99708,0.000311624,0.00124554
0.32019,8.76435,35.01,3.99545,0.000779285,0.00311385
0.576343,8.76986,35.01,3.99325,0.00140319,0.00560493
1.08865,8.78066,35.01,3.98707,0.00265236,0.0105871
2.11326,8.80122,35.01,3.9783,0.00515587,0.0205514
3.13787,8.82037,35.01,3.96962,0.00766493,0.0305157
4.16247,8.83814,35.01,3.95974,0.0101791,0.0404801
6.16247,8.86915,35.01,3.94874,0.0151023,0.0599301
8.16247,8.8959,35.01,3.93495,0.0200409,0.0793801
10.1625,8.91902,35.01,3.92488,0.0249928,0.0988301
12.1625,8.93905,35.01,3.91651,0.0299563,0.11828
14.1625,8.95641,35.01,3.91071,0.0349297,0.13773
16.1625,8.97149,35.01,3.90302,0.0399119,0.15718
18.1625,8.9846,35.01,3.89623,0.0449016,0.17663
20.1625,8.99603,35.01,3.89308,0.0498978,0.19608
22.1625,9.006,35.01,3.88772,0.0548998,0.21553
24.1625,9.01472,35.01,3.88298,0.0599068,0.23498
26.1625,9.02237,35.01,3.87935,0.0649182,0.25443
28.1625,9.02914,35.01,3.87534,0.0699335,0.27388
30.1625,9.03516,35.01,3.87507,0.0749522,0.29333
32.1625,9.04061,35.01,3.87363,0.079974,0.31278
34.1625,9.04557,35.01,3.87141,0.0849987,0.33223
36.1625,9.05019,35.01,3.86705,0.0900259,0.35168
38.1625,9.05453,35.01,3.86742,0.0950556,0.37113
40.1625,9.05867,35.01,3.86353,0.100088,0.39058
42.1625,9.06265,35.01,3.86491,0.105122,0.41003
44.1625,9.06652,35.01,3.85989,0.110158,0.42948
46.1625,9.07028,35.01,3.86008,0.115197,0.44893
48.1625,9.07397,35.01,3.85726,0.120237,0.46838
50.1625,9.0776,35.01,3.85627,0.12528,0.48783
52.1625,9.08118,35.01,3.85559,0.130325,0.50728
54.1625,9.08472,35.01,3.85319,0.135371,0.52673
56.1625,9.08823,35.01,3.85356,0.14042,0.54618
58.1625,9.09172,35.01,3.84821,0.14547,0.56563
60.1625,9.09521,35.01,3.84762,0.150523,0.58508
62.1625,9.09868,35.01,3.84696,0.155577,0.60453
64.1625,9.10216,35.01,3.84684,0.160633,0.62398
66.1625,9.10564,35.01,3.84486,0.165691,0.64343
68.1625,9.10914,35.01,3.84599,0.170752,0.66288
70.1625,9.11265,35.01,3.84104,0.175814,0.68233
72.1625,9.11615,35.01,3.83998,0.180878,0.70178
74.1625,9.11969,35.01,3.83803,0.185944,0.72123
76.1625,9.12327,35.01,3.83723,0.191012,0.74068
78.1625,9.12689,35.01,3.83457,0.196082,0.76013
80.1625,9.13053,35.01,3.83573,0.201154,0.77958
82.1625,9.1342,35.01,3.83316,0.206228,0.79903
84.1625,9.13793,35.01,3.83063,0.211304,0.81848
86.1625,9.1417,35.01,3.82998,0.216382,0.83793
88.1625,9.14549,35.01,3.82576,0.221462,0.85738
90.1625,9.14933,35.01,3.82776,0.226545,0.87683
92.1625,9.15321,35.01,3.82513,0.231629,0.89628
94.1625,9.15714,35.01,3.82163,0.236716,0.91573
96.1625,9.1611,35.01,3.82154,0.241805,0.93518
98.1625,9.16509,35.01,3.82041,0.246896,0.95463
100.162,9.16912,35.01,3.81893,0.25199,0.97408
102.162,9.17318,35.01,3.81666,0.257085,0.99353
104.162,9.17729,35.01,3.81403,0.262183,1.01298
106.162,9.18142,35.01,3.81348,0.267283,1.03243
108.162,9.18557,35.01,3.81339,0.272386,1.05188
110.162,9.18976,35.01,3.81064,0.277491,1.07133
112.162,9.19398,35.01,3.80697,0.282598,1.09078
114.162,9.19821,35.01,3.80797,0.287708,1.11023
116.162,9.20246,35.01,3.80489,0.292819,1.12968
118.162,9.20672,35.01,3.80279,0.297934,1.14913
120.162,9.21101,35.01,3.79866,0.30305,1.16858
122.162,9.21531,35.01,3.79983,0.308169,1.18803
124.162,9.21961,35.01,3.79712,0.313291,1.20748
126.162,9.22393,35.01,3.79559,0.318415,1.22693
128.162,9.22824,35.01,3.79353,0.323541,1.24638
130.162,9.23256,35.01,3.79207,0.328669,1.26583
132.162,9.23688,35.01,3.79013,0.3338,1.28528
134.162,9.2412,35.01,3.79132,0.338934,1.30473
136.162,9.24551,35.01,3.78771,0.34407,1.32418
138.162,9.24982,35.01,3.78575,0.349208,1.34363
140.162,9.25412,35.01,3.78483,0.354348,1.36308
142.162,9.2584,35.01,3.78256,0.359491,1.38253
144.162,9.26268,35.01,3.77835,0.364637,1.40198
146.162,9.26695,35.01,3.77693,0.369784,1.42143
148.162,9.2712,35.01,3.77574,0.374934,1.44088
150.162,9.27543,35.01,3.77348,0.380087,1.46033
152.162,9.27965,35.01,3.77334,0.385242,1.47978
154.162,9.28386,35.01,3.77167,0.390399,1.49923
156.162,9.28804,35.01,3.76983,0.395558,1.51868
158.162,9.2922,35.01,3.76736,0.40072,1.53813
160.162,9.29635,35.01,3.76754,0.405884,1.55758
162.162,9.30047,35.01,3.76553,0.41105,1.57703
164.162,9.30457,35.01,3.76368,0.416219,1.59648
166.162,9.30865,35.01,3.75894,0.42139,1.61593
168.162,9.3127,35.01,3.75822,0.426563,1.63538
170.162,9.31673,35.01,3.75733,0.431738,1.65483
172.162,9.32074,35.01,3.75673,0.436916,1.67428
174.162,9.32472,35.01,3.75413,0.442096,1.69373
176.162,9.32868,35.01,3.75136,0.447278,1.71318
178.162,9.33261,35.01,3.75082,0.452462,1.73263
180.162,9.33652,35.01,3.7493,0.457649,1.75208
182.162,9.3404,35.01,3.74767,0.462837,1.77153
184.162,9.34426,35.01,3.74817,0.468028,1.79098
186.162,9.34809,35.01,3.74507,0.473221,1.81043
188.162,9.35189,35.01,3.74502,0.478416,1.82988
190.162,9.35567,35.01,3.74108,0.483613,1.84933
192.162,9.35942,35.01,3.7402,0.488812,1.86878
194.162,9.36315,35.01,3.73896,0.494013,1.88823
196.162,9.36685,35.01,3.7392,0.499216,1.90768
198.162,9.37053,35.01,3.73596,0.504422,1.92713
200.162,9.37418,35.01,3.73638,0.509629,1.94658
202.162,9.3778,35.01,3.73382,0.514839,1.96603
204.162,9.3814,35.01,3.73276,0.52005,1.98548
206.162,9.38498,35.01,3.73119,0.525263,2.00493
208.162,9.38853,35.01,3.7294,0.530479,2.02438
210.162,9.39206,35.01,3.72547,0.535696,2.04383
212.162,9.39557,35.01,3.72599,0.540915,2.06328
214.162,9.39905,35.01,3.72506,0.546137,2.08273
216.162,9.40251,35.01,3.72317,0.55136,2.10218
218.162,9.40595,35.01,3.72183,0.556585,2.12163
220.162,9.40937,35.01,3.72223,0.561812,2.14108
222.162,9.41277,35.01,3.71919,0.567041,2.16053
224.162,9.41615,35.01,3.71814,0.572271,2.17998
226.162,9.41951,35.01,3.7175,0.577504,2.19943
228.162,9.42285,35.01,3.71445,0.582738,2.21888
230.162,9.42617,35.01,3.71357,0.587975,2.23833
232.162,9.42948,35.01,3.71276,0.593213,2.25778
234.162,9.43277,35.01,3.71125,0.598453,2.27723
236.162,9.43604,35.01,3.70948,0.603694,2.29668
238.162,9.4393,35.01,3.70958,0.608938,2.31613
240.162,9.44255,35.01,3.70718,0.614183,2.33558
242.162,9.44578,35.01,3.70453,0.619431,2.35503
244.162,9.44901,35.01,3.70468,0.62468,2.37448
246.162,9.45222,35.01,3.70503,0.62993,2.39393
248.162,9.45542,35.01,3.70159,0.635183,2.41338
250.162,9.45861,35.01,3.70093,0.640437,2.43283
252.162,9.4618,35.01,3.70087,0.645694,2.45228
254.162,9.46498,35.01,3.69895,0.650951,2.47173
256.162,9.46815,35.01,3.69817,0.656211,2.49118
258.162,9.47132,35.01,3.69524,0.661472,2.51063
260.162,9.47448,35.01,3.69668,0.666736,2.53008
262.162,9.47764,35.01,3.6948,0.672001,2.54953
264.162,9.48079,35.01,3.692,0.677267,2.56898
266.162,9.48395,35.01,3.691,0.682536,2.58843
268.162,9.4871,35.01,3.69014,0.687806,2.60788
270.162,9.49025,35.01,3.68927,0.693078,2.62733
272.162,9.49341,35.01,3.68905,0.698351,2.64678
274.162,9.49656,35.01,3.68761,0.703627,2.66623
276.162,9.49971,35.01,3.68552,0.708904,2.68568
278.162,9.50287,35.01,3.68554,0.714183,2.70513
280.162,9.50603,35.01,3.68177,0.719464,2.72458
282.162,9.50919,35.01,3.6837,0.724746,2.74403
284.162,9.51236,35.01,3.68054,0.73003,2.76348
286.162,9.51553,35.01,3.67938,0.735316,2.78293
288.162,9.5187,35.01,3.67598,0.740604,2.80238
290.162,9.52188,35.01,3.67643,0.745893,2.82183
292.162,9.52506,35.01,3.67316,0.751185,2.84128
294.162,9.52826,35.01,3.67701,0.756478,2.86073
296.162,9.53145,35.01,3.67251,0.761773,2.88018
298.162,9.53465,35.01,3.67184,0.767069,2.89963
300.162,9.53786,35.01,3.67081,0.772367,2.91908
302.162,9.54108,35.01,3.67013,0.777668,2.93853
304.162,9.5443,35.01,3.66744,0.78297,2.95798
306.162,9.54754,35.01,3.66511,0.788273,2.97743
308.162,9.55078,35.01,3.66563,0.793579,2.99688
310.162,9.55403,35.01,3.66429,0.798886,3.01633
312.162,9.55728,35.01,3.66073,0.804195,3.03578
314.162,9.56055,35.01,3.66144,0.809506,3.05523
316.162,9.56383,35.01,3.66047,0.814819,3.07468
318.162,9.56711,35.01,3.661,0.820134,3.09413
320.162,9.57041,35.01,3.65827,0.82545,3.11358
322.162,9.57371,35.01,3.65785,0.830768,3.13303
324.162,9.57703,35.01,3.65585,0.836089,3.15248
326.162,9.58036,35.01,3.65472,0.84141,3.17193
328.162,9.58369,35.01,3.65282,0.846734,3.19138
330.162,9.58704,35.01,3.65174,0.85206,3.21083
332.162,9.5904,35.01,3.65068,0.857387,3.23028
334.162,9.59377,35.01,3.6501,0.862717,3.24973
336.162,9.59716,35.01,3.64688,0.868048,3.26918
338.162,9.60055,35.01,3.64689,0.873381,3.28863
340.162,9.60396,35.01,3.64607,0.878716,3.30808
342.162,9.60738,35.01,3.64468,0.884053,3.32753
344.162,9.61081,35.01,3.64303,0.889392,3.34698
346.162,9.61426,35.01,3.64062,0.894733,3.36643
348.162,9.61771,35.01,3.63998,0.900076,3.38588
350.162,9.62118,35.01,3.63795,0.90542,3.40533
352.162,9.62467,35.01,3.63836,0.910767,3.42478
354.162,9.62816,35.01,3.63598,0.916115,3.44423
356.162,9.63167,35.01,3.63434,0.921466,3.46368
358.162,9.6352,35.01,3.63547,0.926818,3.48313
360.162,9.63873,35.01,3.63271,0.932173,3.50258
362.162,9.64228,35.01,3.6303,0.937529,3.52203
364.162,9.64585,35.01,3.62954,0.942887,3.54148
366.162,9.64942,35.01,3.62765,0.948247,3.56093
368.162,9.65302,35.01,3.62671,0.95361,3.58038
370.162,9.65662,35.01,3.62513,0.958974,3.59983
372.162,9.66024,35.01,3.62371,0.96434,3.61928
374.162,9.66388,35.01,3.62326,0.969709,3.63873
376.162,9.66752,35.01,3.62169,0.975079,3.65818
378.162,9.67119,35.01,3.61998,0.980451,3.67763
380.162,9.67487,35.01,3.61726,0.985826,3.69708
382.162,9.67856,35.01,3.61612,0.991202,3.71653
384.162,9.68227,35.01,3.61522,0.996581,3.73598
386.162,9.68599,35.01,3.61588,1.00196,3.75543
388.162,9.68972,35.01,3.61347,1.00734,3.77488
390.162,9.69347,35.01,3.61168,1.01273,3.79433
392.162,9.69724,35.01,3.61105,1.01812,3.81378
394.162,9.70102,35.01,3.6085,1.0235,3.83323
396.162,9.70481,35.01,3.60617,1.0289,3.85268
398.162,9.70862,35.01,3.60544,1.03429,3.87213
400.162,9.71245,35.01,3.60414,1.03968,3.89158
402.162,9.71629,35.01,3.60325,1.04508,3.91103
404.162,9.72014,35.01,3.60122,1.05048,3.93048
406.162,9.72401,35.01,3.60179,1.05588,3.94993
408.162,9.72789,35.01,3.59983,1.06129,3.96938
410.162,9.73179,35.01,3.5986,1.06669,3.98883
412.162,9.7357,35.01,3.59519,1.0721,4.00828
414.162,9.73963,35.01,3.59525,1.07751,4.02773
416.162,9.74357,35.01,3.59203,1.08292,4.04718
418.162,9.74753,35.01,3.59135,1.08834,4.06663
420.162,9.7515,35.01,3.58993,1.09376,4.08608
422.162,9.75548,35.01,3.58902,1.09917,4.10553
424.162,9.75948,35.01,3.58715,1.1046,4.12498
426.162,9.76349,35.01,3.5867,1.11002,4.14443
428.162,9.76752,35.01,3.58308,1.11545,4.16388
430.162,9.77156,35.01,3.58157,1.12087,4.18333
432.162,9.77561,35.01,3.5801,1.1263,4.20278
434.162,9.77968,35.01,3.58003,1.13174,4.22223
436.162,9.78376,35.01,3.57606,1.13717,4.24168
438.162,9.78785,35.01,3.57797,1.14261,4.26113
440.162,9.79196,35.01,3.57419,1.14805,4.28058
442.162,9.79608,35.01,3.57412,1.15349,4.30003
444.162,9.80022,35.01,3.57392,1.15893,4.31948
446.162,9.80436,35.01,3.57058,1.16438,4.33893
448.162,9.80852,35.01,3.56861,1.16983,4.35838
450.162,9.81269,35.01,3.56742,1.17528,4.37783
452.162,9.81687,35.01,3.56766,1.18073,4.39728
454.162,9.82107,35.01,3.56549,1.18619,4.41673
456.162,9.82528,35.01,3.56322,1.19165,4.43618
458.162,9.82949,35.01,3.55919,1.19711,4.45563
460.162,9.83372,35.01,3.56044,1.20257,4.47508
462.162,9.83796,35.01,3.55775,1.20803,4.49453
464.162,9.84221,35.01,3.55864,1.2135,4.51398
466.162,9.84647,35.01,3.55513,1.21897,4.53343
468.162,9.85074,35.01,3.5537,1.22444,4.55288
470.162,9.85502,35.01,3.55387,1.22992,4.57233
472.162,9.85931,35.01,3.55067,1.23539,4.59178
474.162,9.86361,35.01,3.54992,1.24087,4.61123
476.162,9.86792,35.01,3.54819,1.24635,4.63068
478.162,9.87223,35.01,3.54527,1.25184,4.65013
480.162,9.87656,35.01,3.54448,1.25732,4.66958
482.162,9.88089,35.01,3.54215,1.26281,4.68903
484.162,9.88523,35.01,3.54095,1.2683,4.70848
486.162,9.88957,35.01,3.5418,1.2738,4.72793
488.162,9.89392,35.01,3.53843,1.27929,4.74738
490.162,9.89828,35.01,3.53631,1.28479,4.76683
492.162,9.90264,35.01,3.5341,1.29029,4.78628
494.162,9.90701,35.01,3.53307,1.2958,4.80573
496.162,9.91138,35.01,3.53286,1.3013,4.82518
498.162,9.91575,35.01,3.53149,1.30681,4.84463
500.162,9.92013,35.01,3.5282,1.31232,4.86408
502.162,9.92451,35.01,3.52865,1.31783,4.88353
504.162,9.9289,35.01,3.52541,1.32335,4.90298
506.162,9.93328,35.01,3.52547,1.32887,4.92243
508.162,9.93767,35.01,3.52201,1.33439,4.94188
510.162,9.94206,35.01,3.52112,1.33991,4.96133
512.162,9.94645,35.01,3.52009,1.34544,4.98078
514.162,9.95083,35.01,3.51839,1.35096,5.00023
516.162,9.95522,35.01,3.51746,1.35649,5.01968
518.162,9.9596,35.01,3.51649,1.36203,5.03913
520.162,9.96399,35.01,3.51372,1.36756,5.05858
522.162,9.96837,35.01,3.51212,1.3731,5.07803
524.162,9.97275,35.01,3.51099,1.37864,5.09748
526.162,9.97712,35.01,3.50966,1.38418,5.11693
528.162,9.98149,35.01,3.50697,1.38973,5.13638
530.162,9.98586,35.01,3.506,1.39527,5.15583
532.162,9.99022,35.01,3.50315,1.40082,5.17528
534.162,9.99457,35.01,3.50353,1.40637,5.19473
536.162,9.99892,35.01,3.50025,1.41193,5.21418
538.162,10.0033,35.01,3.50011,1.41749,5.23363
540.162,10.0076,35.01,3.49905,1.42304,5.25308
542.162,10.0119,35.01,3.49786,1.42861,5.27253
544.162,10.0162,35.01,3.4934,1.43417,5.29198
546.162,10.0205,35.01,3.49449,1.43974,5.31143
548.162,10.0248,35.01,3.49465,1.4453,5.33088
550.162,10.0291,35.01,3.49136,1.45088,5.35033
552.162,10.0334,35.01,3.48862,1.45645,5.36978
554.162,10.0377,35.01,3.48866,1.46203,5.38923
556.162,10.0419,35.01,3.48697,1.4676,5.40868
558.162,10.0461,35.01,3.48456,1.47318,5.42813
560.162,10.0504,35.01,3.48484,1.47877,5.44758
562.162,10.0546,35.01,3.48333,1.48435,5.46703
564.162,10.0588,35.01,3.47895,1.48994,5.48648
566.162,10.063,35.01,3.47925,1.49553,5.50593
568.162,10.0671,35.01,3.4771,1.50112,5.52538
570.162,10.0713,35.01,3.47422,1.50672,5.54483
572.162,10.0754,35.01,3.47486,1.51231,5.56428
574.162,10.0796,35.01,3.47391,1.51791,5.58373
576.162,10.0837,35.01,3.47285,1.52351,5.60318
578.162,10.0878,35.01,3.47123,1.52912,5.62263
580.162,10.0918,35.01,3.46825,1.53472,5.64208
582.162,10.0959,35.01,3.46678,1.54033,5.66153
584.162,10.0999,35.01,3.46716,1.54594,5.68098
586.162,10.1039,35.01,3.46431,1.55156,5.70043
588.162,10.108,35.01,3.46204,1.55717,5.71988
590.162,10.1119,35.01,3.46159,1.56279,5.73933
592.162,10.1159,35.01,3.46158,1.56841,5.75878
594.162,10.1199,35.01,3.46048,1.57403,5.77823
596.162,10.1238,35.01,3.45798,1.57965,5.79768
598.162,10.1277,35.01,3.45794,1.58528,5.81713
600.162,10.1316,35.01,3.45652,1.59091,5.83658
602.162,10.1355,35.01,3.45272,1.59654,5.85603
604.162,10.1393,35.01,3.45421,1.60217,5.87548
606.162,10.1432,35.01,3.45157,1.6078,5.89493
608.162,10.147,35.01,3.451,1.61344,5.91438
610.162,10.1508,35.01,3.44952,1.61908,5.93383
612.162,10.1546,35.01,3.44776,1.62472,5.95328
614.162,10.1583,35.01,3.4475,1.63036,5.97273
616.162,10.1621,35.01,3.44549,1.63601,5.99218
618.162,10.1658,35.01,3.44385,1.64166,6.01163
620.162,10.1695,35.01,3.44225,1.6473,6.03108
622.162,10.1732,35.01,3.44089,1.65296,6.05053
624.162,10.1769,35.01,3.44012,1.65861,6.06998
626.162,10.1805,35.01,3.43763,1.66426,6.08943
628.162,10.1842,35.01,3.43806,1.66992,6.10888
630.162,10.1878,35.01,3.43654,1.67558,6.12833
632.162,10.1914,35.01,3.43493,1.68124,6.14778
634.162,10.195,35.01,3.43408,1.68691,6.16723
636.162,10.1985,35.01,3.43287,1.69257,6.18668
638.162,10.2021,35.01,3.43173,1.69824,6.20613
640.162,10.2056,35.01,3.43202,1.70391,6.22558
642.162,10.2091,35.01,3.43012,1.70958,6.24503
644.162,10.2126,35.01,3.42816,1.71525,6.26448
646.162,10.2161,35.01,3.42594,1.72093,6.28393
648.162,10.2196,35.01,3.42576,1.72661,6.30338
650.162,10.223,35.01,3.425,1.73228,6.32283
652.162,10.2265,35.01,3.42251,1.73797,6.34228
654.162,10.2299,35.01,3.42109,1.74365,6.36173
656.162,10.2333,35.01,3.41989,1.74933,6.38118
658.162,10.2367,35.01,3.41958,1.75502,6.40063
660.162,10.2401,35.01,3.42034,1.76071,6.42008
662.162,10.2435,35.01,3.41723,1.7664,6.43953
664.162,10.2468,35.01,3.41695,1.77209,6.45898
666.162,10.2501,35.01,3.41699,1.77778,6.47843
668.162,10.2535,35.01,3.41447,1.78348,6.49788
670.162,10.2568,35.01,3.4132,1.78918,6.51733
672.162,10.2601,35.01,3.41219,1.79488,6.53678
674.162,10.2634,35.01,3.40918,1.80058,6.55623
676.162,10.2667,35.01,3.40843,1.80628,6.57568
678.162,10.2699,35.01,3.40771,1.81199,6.59513
680.162,10.2732,35.01,3.40801,1.81769,6.61458
682.162,10.2764,35.01,3.40577,1.8234,6.63403
684.162,10.2797,35.01,3.40651,1.82911,6.65348
686.162,10.2829,35.01,3.40511,1.83483,6.67293
688.162,10.2861,35.01,3.403,1.84054,6.69238
690.162,10.2894,35.01,3.40254,1.84626,6.71183
692.162,10.2926,35.01,3.40202,1.85197,6.73128
694.162,10.2958,35.01,3.39993,1.85769,6.75073
696.162,10.299,35.01,3.39793,1.86341,6.77018
698.162,10.3021,35.01,3.39711,1.86914,6.78963
700.162,10.3053,35.01,3.39862,1.87486,6.80908
702.162,10.3085,35.01,3.39574,1.88059,6.82853
704.162,10.3116,35.01,3.39465,1.88632,6.84798
706.162,10.3148,35.01,3.39337,1.89205,6.86743
708.162,10.318,35.01,3.39356,1.89778,6.88688
710.162,10.3211,35.01,3.39208,1.90351,6.90633
712.162,10.3243,35.01,3.39097,1.90925,6.92578
714.162,10.3274,35.01,3.38819,1.91498,6.94523
716.162,10.3305,35.01,3.3872,1.92072,6.96468
718.162,10.3337,35.01,3.3892,1.92646,6.98413
720.162,10.3368,35.01,3.38728,1.93221,7.00358
722.162,10.3399,35.01,3.38528,1.93795,7.02303
724.162,10.343,35.01,3.38528,1.94369,7.04248
726.162,10.3461,35.01,3.38559,1.94944,7.06193
728.162,10.3493,35.01,3.38266,1.95519,7.08138
730.162,10.3524,35.01,3.38352,1.96094,7.10083
732.162,10.3555,35.01,3.38028,1.96669,7.12028
734.162,10.3586,35.01,3.3802,1.97245,7.13973
736.162,10.3617,35.01,3.37814,1.97821,7.15918
738.162,10.3648,35.01,3.37708,1.98396,7.17863
740.162,10.3679,35.01,3.37532,1.98972,7.19808
742.162,10.371,35.01,3.37543,1.99548,7.21753
744.162,10.3741,35.01,3.37453,2.00125,7.23698
746.162,10.3772,35.01,3.37421,2.00701,7.25643
748.162,10.3803,35.01,3.3713,2.01278,7.27588
750.162,10.3834,35.01,3.37209,2.01855,7.29533
752.162,10.3865,35.01,3.36989,2.02432,7.31478
754.162,10.3896,35.01,3.37014,2.03009,7.33423
756.162,10.3926,35.01,3.3687,2.03586,7.35368
758.162,10.3957,35.01,3.36711,2.04164,7.37313
760.162,10.3988,35.01,3.36509,2.04741,7.39258
762.162,10.4019,35.01,3.36612,2.05319,7.41203
764.162,10.405,35.01,3.36492,2.05897,7.43148
766.162,10.4081,35.01,3.36496,2.06475,7.45093
768.162,10.4112,35.01,3.36217,2.07054,7.47038
770.162,10.4143,35.01,3.35986,2.07632,7.48983
772.162,10.4174,35.01,3.36137,2.08211,7.50928
774.162,10.4205,35.01,3.35839,2.0879,7.52873
776.162,10.4235,35.01,3.35776,2.09369,7.54818
778.162,10.4266,35.01,3.35748,2.09948,7.56763
780.162,10.4297,35.01,3.35773,2.10527,7.58708
782.162,10.4328,35.01,3.3561,2.11107,7.60653
784.162,10.4359,35.01,3.35375,2.11687,7.62598
786.162,10.439,35.01,3.35518,2.12267,7.64543
788.162,10.4421,35.01,3.35293,2.12847,7.66488
790.162,10.4452,35.01,3.35166,2.13427,7.68433
792.162,10.4484,35.01,3.35064,2.14007,7.70378
794.162,10.4515,35.01,3.34763,2.14588,7.72323
796.162,10.4546,35.01,3.34761,2.15169,7.74268
798.162,10.4577,35.01,3.34791,2.1575,7.76213
800.162,10.4608,35.01,3.34645,2.16331,7.78158
802.162,10.464,35.01,3.3458,2.16912,7.80103
804.162,10.4671,35.01,3.34449,2.17493,7.82048
806.162,10.4702,35.01,3.34235,2.18075,7.83993
808.162,10.4734,35.01,3.34157,2.18657,7.85938
810.162,10.4765,35.01,3.34288,2.19239,7.87883
812.162,10.4797,35.01,3.33987,2.19821,7.89828
814.162,10.4829,35.01,3.34156,2.20403,7.91773
816.162,10.486,35.01,3.33831,2.20986,7.93718
818.162,10.4892,35.01,3.33702,2.21569,7.95663
820.162,10.4924,35.01,3.33628,2.22151,7.97608
822.162,10.4956,35.01,3.3343,2.22735,7.99553
824.162,10.4988,35.01,3.3339,2.23318,8.01498
826.162,10.502,35.01,3.33325,2.23901,8.03443
828.162,10.5052,35.01,3.33225,2.24485,8.05388
830.162,10.5085,35.01,3.32995,2.25068,8.07333
832.162,10.5117,35.01,3.3324,2.25652,8.09278
834.162,10.515,35.01,3.32823,2.26237,8.11223
836.162,10.5182,35.01,3.32731,2.26821,8.13168
838.162,10.5215,35.01,3.32773,2.27405,8.15113
840.162,10.5248,35.01,3.32768,2.2799,8.17058
842.162,10.5281,35.01,3.32333,2.28575,8.19003
844.162,10.5314,35.01,3.32379,2.2916,8.20948
846.162,10.5347,35.01,3.32467,2.29745,8.22893
848.162,10.538,35.01,3.32239,2.3033,8.24838
850.162,10.5413,35.01,3.32224,2.30916,8.26783
852.162,10.5447,35.01,3.32096,2.31502,8.28728
854.162,10.548,35.01,3.32018,2.32088,8.30673
856.162,10.5514,35.01,3.3177,2.32674,8.32618
858.162,10.5548,35.01,3.31669,2.3326,8.34563
860.162,10.5581,35.01,3.31537,2.33847,8.36508
862.162,10.5616,35.01,3.31476,2.34433,8.38453
864.162,10.565,35.01,3.31299,2.3502,8.40398
866.162,10.5684,35.01,3.31343,2.35607,8.42343
868.162,10.5718,35.01,3.30934,2.36195,8.44288
870.162,10.5753,35.01,3.31079,2.36782,8.46233
872.162,10.5788,35.01,3.30945,2.3737,8.48178
874.162,10.5822,35.01,3.30891,2.37958,8.50123
876.162,10.5857,35.01,3.30659,2.38546,8.52068
878.162,10.5893,35.01,3.30522,2.39134,8.54013
880.162,10.5928,35.01,3.30479,2.39722,8.55958
882.162,10.5963,35.01,3.30313,2.40311,8.57903
884.162,10.5999,35.01,3.30314,2.409,8.59848
886.162,10.6034,35.01,3.30402,2.41489,8.61793
888.162,10.607,35.01,3.30103,2.42078,8.63738
890.162,10.6106,35.01,3.29966,2.42668,8.65683
892.162,10.6142,35.01,3.29916,2.43257,8.67628
894.162,10.6178,35.01,3.29631,2.43847,8.69573
896.162,10.6215,35.01,3.2959,2.44437,8.71518
898.162,10.6251,35.01,3.29513,2.45027,8.73463
900.162,10.6288,35.01,3.29422,2.45618,8.75408
902.162,10.6325,35.01,3.29244,2.46208,8.77353
904.162,10.6362,35.01,3.29397,2.46799,8.79298
906.162,10.6399,35.01,3.29049,2.4739,8.81243
908.162,10.6436,35.01,3.2895,2.47982,8.83188
910.162,10.6474,35.01,3.28631,2.48573,8.85133
912.162,10.6511,35.01,3.28614,2.49165,8.87078
914.162,10.6549,35.01,3.28613,2.49757,8.89023
916.162,10.6587,35.01,3.28623,2.50349,8.90968
918.162,10.6625,35.01,3.28338,2.50941,8.92913
920.162,10.6663,35.01,3.28274,2.51534,8.94858
922.162,10.6702,35.01,3.2808,2.52126,8.96803
924.162,10.674,35.01,3.27991,2.52719,8.98748
926.162,10.6779,35.01,3.27807,2.53312,9.00693
928.162,10.6818,35.01,3.27646,2.53906,9.02638
930.162,10.6857,35.01,3.27566,2.54499,9.04583
932.162,10.6896,35.01,3.27459,2.55093,9.06528
934.162,10.6935,35.01,3.27373,2.55687,9.08473
936.162,10.6975,35.01,3.27378,2.56281,9.10418
938.162,10.7015,35.01,3.27114,2.56876,9.12363
940.162,10.7054,35.01,3.27018,2.57471,9.14308
942.162,10.7094,35.01,3.26914,2.58066,9.16253
944.162,10.7135,35.01,3.2685,2.58661,9.18198
946.162,10.7175,35.01,3.26706,2.59256,9.20143
948.162,10.7215,35.01,3.26404,2.59852,9.22088
950.162,10.7256,35.01,3.26286,2.60447,9.24033
952.162,10.7297,35.01,3.26432,2.61043,9.25978
954.162,10.7338,35.01,3.26175,2.6164,9.27923
956.162,10.7379,35.01,3.26258,2.62236,9.29868
958.162,10.742,35.01,3.2601,2.62833,9.31813
960.162,10.7461,35.01,3.25782,2.6343,9.33758
962.162,10.7503,35.01,3.25704,2.64027,9.35703
964.162,10.7545,35.01,3.25571,2.64624,9.37648
966.162,10.7587,35.01,3.25497,2.65222,9.39593
968.162,10.7629,35.01,3.2538,2.6582,9.41538
970.162,10.7671,35.01,3.25064,2.66418,9.43483
972.162,10.7713,35.01,3.2507,2.67016,9.45428
974.162,10.7756,35.01,3.24674,2.67615,9.47373
976.162,10.7799,35.01,3.24764,2.68214,9.49318
978.162,10.7842,35.01,3.24722,2.68813,9.51263
980.162,10.7885,35.01,3.24537,2.69412,9.53208
982.162,10.7928,35.01,3.24297,2.70012,9.55153
984.162,10.7971,35.01,3.24163,2.70612,9.57098
986.162,10.8015,35.01,3.24187,2.71212,9.59043
988.162,10.8058,35.01,3.24029,2.71812,9.60988
990.162,10.8102,35.01,3.23693,2.72412,9.62933
992.162,10.8146,35.01,3.23618,2.73013,9.64878
994.162,10.819,35.01,3.23696,2.73614,9.66823
996.162,10.8234,35.01,3.23383,2.74215,9.68768
998.162,10.8279,35.01,3.23367,2.74817,9.70713
1000.16,10.8323,35.01,3.23167,2.75419,9.72658
1002.16,10.8368,35.01,3.22989,2.76021,9.74603
1004.16,10.8413,35.01,3.22987,2.76623,9.76548
1006.16,10.8458,35.01,3.22794,2.77225,9.78493
1008.16,10.8503,35.01,3.2272,2.77828,9.80438
1010.16,10.8549,35.01,3.22478,2.78431,9.82383
1012.16,10.8594,35.01,3.22453,2.79034,9.84328
1014.16,10.864,35.01,3.22361,2.79638,9.86273
1016.16,10.8686,35.01,3.22092,2.80241,9.88218
1018.16,10.8732,35.01,3.21851,2.80845,9.90163
1020.16,10.8778,35.01,3.2175,2.8145,9.92108
1022.16,10.8824,35.01,3.21882,2.82054,9.94053
1024.16,10.887,35.01,3.21466,2.82659,9.95998
1026.16,10.8917,35.01,3.21512,2.83264,9.97943
1028.16,10.8963,35.01,3.21279,2.83869,9.99888
1030.16,10.901,35.01,3.21147,2.84475,10.0183
1032.16,10.9057,35.01,3.21102,2.85081,10.0378
1034.16,10.9104,35.01,3.20857,2.85687,10.0572
1036.16,10.9151,35.01,3.20907,2.86293,10.0767
1038.16,10.9199,35.01,3.2064,2.869,10.0961
1040.16,10.9246,35.01,3.20645,2.87506,10.1156
1042.16,10.9294,35.01,3.20482,2.88114,10.135
1044.16,10.9342,35.01,3.20149,2.88721,10.1545
1046.16,10.939,35.01,3.20054,2.89329,10.1739
1048.16,10.9438,35.01,3.19873,2.89937,10.1934
1050.16,10.9486,35.01,3.19872,2.90545,10.2128
1052.16,10.9534,35.01,3.19591,2.91153,10.2323
1054.16,10.9583,35.01,3.19387,2.91762,10.2517
1056.16,10.9631,35.01,3.19199,2.92371,10.2712
1058.16,10.968,35.01,3.19295,2.9298,10.2906
1060.16,10.9729,35.01,3.19043,2.9359,10.3101
1062.16,10.9778,35.01,3.18807,2.942,10.3295
1064.16,10.9827,35.01,3.18649,2.9481,10.349
1066.16,10.9876,35.01,3.18547,2.9542,10.3684
1068.16,10.9926,35.01,3.18532,2.96031,10.3879
1070.16,10.9975,35.01,3.18326,2.96641,10.4073
1072.16,11.0025,35.01,3.18261,2.97253,10.4268
1074.16,11.0074,35.01,3.18015,2.97864,10.4462
1076.16,11.0124,35.01,3.17827,2.98476,10.4657
1078.16,11.0174,35.01,3.17787,2.99088,10.4851
1080.16,11.0224,35.01,3.176,2.997,10.5046
1082.16,11.0275,35.01,3.17447,3.00313,10.524
1084.16,11.0325,35.01,3.17181,3.00926,10.5435
1086.16,11.0376,35.01,3.1714,3.01539,10.5629
1088.16,11.0426,35.01,3.17092,3.02152,10.5824
1090.16,11.0477,35.01,3.16855,3.02766,10.6018
1092.16,11.0528,35.01,3.168,3.0338,10.6213
1094.16,11.0579,35.01,3.16615,3.03994,10.6407
1096.16,11.063,35.01,3.16391,3.04609,10.6602
1098.16,11.0682,35.01,3.1636,3.05223,10.6796
1100.16,11.0733,35.01,3.16191,3.05839,10.6991
1102.16,11.0785,35.01,3.1598,3.06454,10.7185
1104.16,11.0836,35.01,3.15894,3.0707,10.738
1106.16,11.0888,35.01,3.15504,3.07686,10.7574
1108.16,11.094,35.01,3.15647,3.08302,10.7769
1110.16,11.0992,35.01,3.15267,3.08918,10.7963
1112.16,11.1044,35.01,3.15293,3.09535,10.8158
1114.16,11.1097,35.01,3.15242,3.10152,10.8352
1116.16,11.1149,35.01,3.15,3.1077,10.8547
1118.16,11.1202,35.01,3.14754,3.11387,10.8741
1120.16,11.1255,35.01,3.14741,3.12006,10.8936
1122.16,11.1308,35.01,3.14448,3.12624,10.913
1124.16,11.1361,35.01,3.14345,3.13242,10.9325
1126.16,11.1414,35.01,3.14103,3.13861,10.9519
1128.16,11.1468,35.01,3.13887,3.1448,10.9714
1130.16,11.1521,35.01,3.13954,3.151,10.9908
1132.16,11.1575,35.01,3.13849,3.1572,11.0103
1134.16,11.1629,35.01,3.13587,3.1634,11.0297
1136.16,11.1683,35.01,3.13433,3.1696,11.0492
1138.16,11.1737,35.01,3.13202,3.17581,11.0686
1140.16,11.1792,35.01,3.13335,3.18202,11.0881
1142.16,11.1846,35.01,3.12918,3.18823,11.1075
1144.16,11.1901,35.01,3.12914,3.19445,11.127
1146.16,11.1956,35.01,3.12768,3.20067,11.1464
1148.16,11.2011,35.01,3.12462,3.20689,11.1659
1150.16,11.2067,35.01,3.12522,3.21311,11.1853
1152.16,11.2122,35.01,3.12365,3.21934,11.2048
1154.16,11.2178,35.01,3.12115,3.22557,11.2242
1156.16,11.2234,35.01,3.12035,3.23181,11.2437
1158.16,11.229,35.01,3.11871,3.23805,11.2631
1160.16,11.2347,35.01,3.11531,3.24429,11.2826
1162.16,11.2403,35.01,3.11385,3.25053,11.302
1164.16,11.246,35.01,3.11342,3.25678,11.3215
1166.16,11.2517,35.01,3.11251,3.26303,11.3409
1168.16,11.2575,35.01,3.11056,3.26928,11.3604
1170.16,11.2632,35.01,3.10917,3.27554,11.3798
1172.16,11.269,35.01,3.10685,3.2818,11.3993
1174.16,11.2749,35.01,3.10438,3.28806,11.4187
1176.16,11.2807,35.01,3.1042,3.29433,11.4382
1178.16,11.2866,35.01,3.10054,3.3006,11.4576
1180.16,11.2925,35.01,3.09859,3.30687,11.4771
1182.16,11.2984,35.01,3.09715,3.31314,11.4965
1184.16,11.3044,35.01,3.0974,3.31942,11.516
1186.16,11.3104,35.01,3.095,3.32571,11.5354
1188.16,11.3164,35.01,3.09589,3.33199,11.5549
1190.16,11.3225,35.01,3.09264,3.33828,11.5743
1192.16,11.3286,35.01,3.08921,3.34458,11.5938
1194.16,11.3347,35.01,3.08801,3.35087,11.6132
1196.16,11.3409,35.01,3.08684,3.35717,11.6327
1198.16,11.3471,35.01,3.08496,3.36347,11.6521
1200.16,11.3534,35.01,3.08323,3.36978,11.6716
1202.16,11.3597,35.01,3.08132,3.37609,11.691
1204.16,11.366,35.01,3.08174,3.3824,11.7105
1206.16,11.3724,35.01,3.07903,3.38872,11.7299
1208.16,11.3788,35.01,3.07813,3.39504,11.7494
1210.16,11.3852,35.01,3.07538,3.40137,11.7688
1212.16,11.3917,35.01,3.07378,3.40769,11.7883
1214.16,11.3983,35.01,3.07016,3.41403,11.8077
1216.16,11.4049,35.01,3.06777,3.42036,11.8272
1218.16,11.4115,35.01,3.06697,3.4267,11.8466
1220.16,11.4182,35.01,3.06608,3.43304,11.8661
1222.16,11.425,35.01,3.06553,3.43939,11.8855
1224.16,11.4318,35.01,3.06164,3.44574,11.905
1226.16,11.4387,35.01,3.05896,3.45209,11.9244
1228.16,11.4456,35.01,3.05775,3.45845,11.9439
1230.16,11.4525,35.01,3.05696,3.46481,11.9633
1232.16,11.4596,35.01,3.0547,3.47118,11.9828
1234.16,11.4667,35.01,3.0536,3.47755,12.0022
1236.16,11.4738,35.01,3.05265,3.48392,12.0217
1238.16,11.481,35.01,3.04988,3.4903,12.0411
1240.16,11.4883,35.01,3.04741,3.49668,12.0606
1242.16,11.4957,35.01,3.04602,3.50306,12.08
1244.16,11.5031,35.01,3.04426,3.50945,12.0995
1246.16,11.5106,35.01,3.04077,3.51585,12.1189
1248.16,11.5181,35.01,3.03886,3.52225,12.1384
1250.16,11.5257,35.01,3.03612,3.52865,12.1578
1252.16,11.5334,35.01,3.03578,3.53505,12.1773
1254.16,11.5412,35.01,3.03264,3.54146,12.1967
1256.16,11.5491,35.01,3.03241,3.54788,12.2162
1258.16,11.557,35.01,3.02879,3.5543,12.2356
1260.16,11.565,35.01,3.02664,3.56072,12.2551
1262.16,11.5731,35.01,3.02612,3.56715,12.2745
1264.16,11.5813,35.01,3.02207,3.57358,12.294
1266.16,11.5896,35.01,3.021,3.58002,12.3134
1268.16,11.598,35.01,3.01823,3.58646,12.3329
1270.16,11.6065,35.01,3.0169,3.59291,12.3523
1272.16,11.615,35.01,3.01536,3.59936,12.3718
1274.16,11.6237,35.01,3.01273,3.60582,12.3912
1276.16,11.6325,35.01,3.01011,3.61228,12.4107
1278.16,11.6413,35.01,3.00786,3.61875,12.4301
1280.16,11.6503,35.01,3.00539,3.62522,12.4496
1282.16,11.6594,35.01,3.00198,3.63169,12.469
1284.16,11.6686,35.01,2.99914,3.63817,12.4885
1286.16,11.6779,35.01,2.99925,3.64466,12.5079
1288.16,11.6873,35.01,2.99653,3.65115,12.5274
1290.16,11.6968,35.01,2.99303,3.65765,12.5468
1292.16,11.7065,35.01,2.98966,3.66415,12.5663
1294.16,11.7163,35.01,2.9879,3.67066,12.5857
1296.16,11.7262,35.01,2.98741,3.67717,12.6052
1298.16,11.7363,35.01,2.98207,3.68369,12.6246
1300.16,11.7465,35.01,2.98122,3.69022,12.6441
1302.16,11.7568,35.01,2.97884,3.69675,12.6635
1304.16,11.7673,35.01,2.9763,3.70328,12.683
1306.16,11.7779,35.01,2.97181,3.70982,12.7024
1308.16,11.7886,35.01,2.96967,3.71637,12.7219
1310.16,11.7996,35.01,2.9677,3.72293,12.7413
1312.16,11.8107,35.01,2.96321,3.72949,12.7608
1314.16,11.8219,35.01,2.96101,3.73605,12.7802
1316.16,11.8334,35.01,2.95967,3.74262,12.7997
1318.16,11.845,35.01,2.95575,3.7492,12.8191
1320.16,11.8568,35.01,2.95293,3.75579,12.8386
1322.16,11.8688,35.01,2.94977,3.76238,12.858
1324.16,11.881,35.01,2.9462,3.76898,12.8775
1326.16,11.8934,35.01,2.94547,3.77558,12.8969
1328.16,11.906,35.01,2.94031,3.7822,12.9164
1330.16,11.9188,35.01,2.9375,3.78882,12.9358
1332.16,11.9319,35.01,2.93492,3.79544,12.9553
1334.16,11.9452,35.01,2.93197,3.80208,12.9747
1336.16,11.9588,35.01,2.92835,3.80872,12.9942
1338.16,11.9727,35.01,2.92556,3.81537,13.0136
1340.16,11.9868,35.01,2.92129,3.82203,13.0331
1342.16,12.0013,35.01,2.91773,3.82869,13.0525
1344.16,12.0161,35.01,2.91432,3.83537,13.072
1346.16,12.0311,35.01,2.91062,3.84205,13.0914
1348.16,12.0466,35.01,2.90606,3.84874,13.1109
1350.16,12.0625,35.01,2.90159,3.85544,13.1303
1352.16,12.0787,35.01,2.8977,3.86215,13.1498
1354.16,12.0954,35.01,2.89472,3.86886,13.1692
1356.16,12.1125,35.01,2.89187,3.87559,13.1887
1358.16,12.1302,35.01,2.88635,3.88233,13.2081
1360.16,12.1483,35.01,2.88146,3.88907,13.2276
1362.16,12.1672,35.01,2.87674,3.89583,13.247
1364.16,12.1865,35.01,2.87365,3.9026,13.2665
1366.16,12.2067,35.01,2.86835,3.90938,13.2859
1368.16,12.2276,35.01,2.86146,3.91617,13.3054
1370.16,12.2493,35.01,2.85704,3.92297,13.3248
1372.16,12.272,35.01,2.85287,3.92978,13.3443
1374.16,12.2958,35.01,2.84807,3.93661,13.3637
1376.16,12.3207,35.01,2.84204,3.94345,13.3832
1378.16,12.347,35.01,2.83539,3.95031,13.4026
1380.16,12.3749,35.01,2.83003,3.95718,13.4221
1382.16,12.4045,35.01,2.82285,3.96407,13.4415
1384.16,12.4363,35.01,2.81544,3.97097,13.461
1386.16,12.4706,35.01,2.80793,3.97789,13.4804
1388.16,12.5079,35.01,2.79996,3.98484,13.4999
1390.16,12.549,35.01,2.78824,3.9918,13.5193
1392.16,12.5946,35.01,2.78079,3.99879,13.5388
1394.16,12.6463,35.01,2.7683,4.00581,13.5582
1396.16,12.7062,35.01,2.75553,4.01286,13.5777
1398.16,12.7773,35.01,2.74008,4.01995,13.5971
1400.16,12.8652,35.01,2.72239,4.02709,13.6166
1400.66,12.8913,35.01,2.7163,4.02887,13.6214
1401.11,12.9162,35.01,2.71024,4.03049,13.6258
1401.56,12.9432,35.01,2.70455,4.03211,13.6302
1402.42,13.0004,35.01,2.69282,4.03519,13.6385
1403.18,13.0603,35.01,2.67966,4.03793,13.6459
1403.59,13.0982,35.01,2.67222,4.03946,13.65
1403.74,13.1125,35.01,2.66957,4.03998,13.6513
1403.93,13.1328,35.01,2.66541,4.04069,13.6532
1404.45,13.1931,35.01,2.65306,4.0426,13.6583
1404.8,13.2393,35.01,2.64406,4.04386,13.6617
1404.96,13.2639,35.01,2.64166,4.04448,13.6633
1405.05,13.2768,35.01,2.63845,4.04478,13.6641
1405.27,13.3136,35.01,2.62943,4.0456,13.6662
1405.52,13.3607,35.01,2.62078,4.04654,13.6687
1405.57,13.3715,35.01,2.618,4.04673,13.6692
1405.68,13.3941,35.01,2.61444,4.04713,13.6702
1405.82,13.4268,35.01,2.60752,4.04766,13.6716
1406.06,13.4882,35.01,2.59793,4.04853,13.6739
1406.17,13.522,35.01,2.58674,4.04895,13.675
1406.17,13.5226,35.01,2.59002,4.04896,13.675
1406.18,13.5251,35.01,2.58835,4.04899,13.6751
1406.21,13.535,35.01,2.58816,4.04911,13.6754
1406.25,13.5487,35.01,2.58115,4.04926,13.6758
1406.33,13.5774,35.01,2.5798,4.04957,13.6766
1406.46,13.6247,35.01,2.57018,4.05005,13.6778
1406.62,13.6958,35.01,2.55714,4.05067,13.6794
1406.67,13.7198,35.01,2.55241,4.05086,13.6799
1406.73,13.7481,35.01,2.54461,4.05107,13.6804
1406.77,13.7697,35.01,2.54133,4.05122,13.6808
1406.82,13.8008,35.01,2.53741,4.05142,13.6813
1406.92,13.8743,35.01,2.52106,4.05183,13.6823
1407,13.9424,35.01,2.51118,4.05212,13.6831
1407.02,13.9594,35.01,2.50754,4.05219,13.6832
1407.04,13.9839,35.01,2.50323,4.05227,13.6835
1407.05,13.9936,35.01,2.50397,4.0523,13.6835
1407.06,14.004,35.01,2.50071,4.05234,13.6836