File: output/use_case_4.csv
Time [s],Current [A],Power [W],Voltage [V],Capacity [Ah],Energy [Wh]
0.0,-8.33777e-13,-3.12739e-12,3.75163,-0.0,-0.0
4.0,2.78423e-49,1.04458e-48,3.75199,-0.000380471,-0.00143512
8.0,-2.62125e-50,-9.83388e-50,3.75009,-0.000380471,-0.00143512
12.0,-0.0027802,-0.0104306,3.75118,-0.000456461,-0.00172055
16.0,0.344329,1.28806,3.74027,-0.000286298,-0.00108355
20.0,-3.45348e-49,-1.29544e-48,3.7513,-0.000286276,-0.00108347
24.0,7.20745e-50,2.70359e-49,3.75109,-0.000286276,-0.00108347
28.0,-2.48228e-50,-9.31126e-50,3.75138,-0.000286276,-0.00108347
32.0,-3.08155e-06,-1.15593e-05,3.75124,-0.000311891,-0.00117962
36.0,-0.504164,-1.89911,3.76447,-0.000560764,-0.00211622
40.0,-0.891716,-3.37113,3.7783,-0.00155172,-0.00586168
44.0,-0.891267,-3.37113,3.78167,-0.00253654,-0.00958583
48.0,-0.890888,-3.37113,3.78555,-0.00352657,-0.0133315
52.0,-0.851557,-3.22247,3.78158,-0.00449439,-0.0169941
56.0,-0.760909,-2.87818,3.7827,-0.00538358,-0.0203582
60.0,6.39162e-46,2.40252e-45,3.75858,-0.00558689,-0.0211271
64.0,8.05375e-50,3.02644e-49,3.75631,-0.00558689,-0.0211271
68.0,-7.81562e-51,-2.93634e-50,3.75724,-0.00558689,-0.0211271
72.0,-5.07472e-50,-1.90627e-49,3.7574,-0.00558689,-0.0211271
76.0,-7.25081e-50,-2.72333e-49,3.75358,-0.00558689,-0.0211271
80.0,-4.41739e-50,-1.65895e-49,3.75505,-0.00558689,-0.0211271
84.0,3.8612e-49,1.44994e-48,3.7549,-0.00558689,-0.0211271
88.0,1.10408,4.10749,3.7218,-0.00470483,-0.0178438
92.0,1.2802,4.75271,3.71206,-0.00336617,-0.01287
96.0,1.46493,5.42697,3.70343,-0.00181534,-0.00712036
100.0,1.59304,5.89167,3.70008,-8.6445e-05,-0.00072281
104.0,8.5366e-59,3.19608e-58,3.74338,0.000356478,0.000914991
108.0,1.11994,4.15738,3.71416,0.000667586,0.00206987
112.0,0.000149235,0.000558623,3.74247,0.00163925,0.00567459
116.0,1.31589,4.87343,3.70433,0.00304876,0.0108976
120.0,1.49709,5.53411,3.69684,0.00462088,0.0167136
124.0,1.79533,6.61847,3.68667,0.00647591,0.0235596
128.0,2.14125,7.86928,3.67525,0.00871667,0.0318036
132.0,2.41669,8.85798,3.66608,0.0113174,0.0413438
136.0,2.31533,8.48524,3.66367,0.0139069,0.0508355
140.0,2.30099,8.42787,3.66246,0.0164531,0.0601644
144.0,2.28506,8.36524,3.6601,0.0190266,0.0695859
148.0,2.29199,8.38573,3.65811,0.0215679,0.0788856
152.0,2.33929,8.55181,3.65584,0.0241472,0.0883177
156.0,2.4135,8.81435,3.65331,0.0267986,0.0980044
160.0,2.45731,8.96724,3.65014,0.0295114,0.107907
164.0,2.49635,9.10288,3.64614,0.0322701,0.117969
168.0,2.29141,8.36334,3.65107,0.0348175,0.127268
172.0,1.78435,6.53347,3.66093,0.0369841,0.135192
176.0,1.83247,6.70713,3.65869,0.039,0.142571
180.0,1.9424,7.10321,3.65557,0.041109,0.150286
184.0,2.15044,7.85116,3.65193,0.0434083,0.158686
188.0,2.40139,8.74982,3.64371,0.0459686,0.168022
192.0,2.62089,9.53172,3.63847,0.0487947,0.178307
196.0,2.64045,9.59625,3.63448,0.0517935,0.189204
200.0,2.66411,9.67628,3.63211,0.054743,0.199919
204.0,2.47863,9.00935,3.63601,0.0576048,0.210317
208.0,2.55655,9.2851,3.63135,0.0604054,0.220491
212.0,2.7289,9.89672,3.62605,0.0633571,0.231202
216.0,2.94196,10.6506,3.62024,0.0665434,0.242745
220.0,2.64465,9.58735,3.6248,0.0696161,0.253877
224.0,1.7791,6.48562,3.64492,0.0719386,0.262325
228.0,0.000691905,0.00255841,3.69647,0.0722971,0.263637
232.0,1.32866,4.86732,3.66338,0.0730317,0.266328
236.0,1.44713,5.29705,3.66128,0.0745919,0.272041
240.0,1.6394,5.9924,3.65492,0.076319,0.278358
244.0,1.94618,7.09736,3.64545,0.0783512,0.285775
248.0,2.32452,8.45282,3.63647,0.0807775,0.294607
252.0,2.66568,9.66745,3.62884,0.0835971,0.304843
256.0,3.17165,11.4601,3.61154,0.0868391,0.316577
260.0,2.64821,9.59372,3.62239,0.0897854,0.327252
264.0,2.64889,9.59216,3.62139,0.0927525,0.337997
268.0,2.67993,9.69907,3.61771,0.0957143,0.348719
272.0,2.76817,10.0092,3.61461,0.0987557,0.359719
276.0,2.93266,10.5888,3.61086,0.101945,0.37124
280.0,3.08308,11.1166,3.60384,0.105317,0.383405
284.0,2.31005,8.36525,3.6217,0.108476,0.394807
288.0,1.97261,7.1597,3.63063,0.110854,0.403425
292.0,1.78558,6.49042,3.63336,0.112893,0.410836
296.0,1.44823,5.2806,3.64607,0.113791,0.414105
300.0,1.4891,5.42896,3.64529,0.115432,0.420087
304.0,1.53114,5.58123,3.64534,0.117111,0.426209
308.0,1.54878,5.6452,3.64564,0.118825,0.432455
312.0,1.56435,5.7016,3.64662,0.120557,0.438769
316.0,1.46432,5.34356,3.6522,0.121368,0.441727
320.0,1.30276,4.7617,3.65396,0.122089,0.444361
324.0,0.000200748,0.000741687,3.69589,0.122089,0.444362
328.0,1.34191,4.90656,3.6554,0.123554,0.449721
332.0,4.87785e-67,1.80247e-66,3.69623,0.124311,0.452489
336.0,-7.2455e-71,-2.67926e-70,3.69706,0.124311,0.452489
340.0,2.68648e-71,9.9399e-71,3.70099,0.124311,0.452489
344.0,2.10358e-72,7.78698e-72,3.70254,0.124311,0.452489
348.0,-1.5084e-73,-5.58615e-73,3.70488,0.124311,0.452489
352.0,-4.92776e-71,-1.82561e-70,3.70312,0.124311,0.452489
356.0,-1.40926e-71,-5.22267e-71,3.7046,0.124311,0.452489
360.0,-4.79334e-72,-1.77692e-71,3.70782,0.124311,0.452489
364.0,3.30668e-73,1.22614e-72,3.70661,0.124311,0.452489
368.0,2.49559e-72,9.25602e-72,3.70892,0.124311,0.452489
372.0,3.72397e-72,1.3815e-71,3.70934,0.124311,0.452489
376.0,1.57355e-72,5.83868e-72,3.70927,0.124311,0.452489
380.0,0.735082,2.71137,3.68737,0.124706,0.453945
384.0,5.44558e-05,0.000202034,3.71071,0.125155,0.4556
388.0,-3.67541e-53,-1.36372e-52,3.70872,0.125415,0.456558
392.0,-5.67536e-55,-2.10626e-54,3.71013,0.125415,0.456558
396.0,4.11825e-55,1.52868e-54,3.71135,0.125415,0.456558
400.0,6.2501e-55,2.32041e-54,3.71136,0.125415,0.456558
404.0,1.32929e-54,4.93587e-54,3.71363,0.125415,0.456558
408.0,3.51874e-54,1.30674e-53,3.71284,0.125415,0.456558
412.0,-8.93938e-54,-3.3202e-53,3.71507,0.125415,0.456558
416.0,-5.81601e-54,-2.16039e-53,3.71593,0.125415,0.456558
420.0,-6.17913e-55,-2.29552e-54,3.7149,0.125415,0.456558
424.0,3.1494e-56,1.1701e-55,3.71387,0.125415,0.456558
428.0,1.78561e-55,6.63472e-55,3.71535,0.125415,0.456558
432.0,2.53212e-55,9.40933e-55,3.71683,0.125415,0.456558
436.0,6.43112e-55,2.38999e-54,3.71648,0.125415,0.456558
440.0,3.81554e-55,1.41807e-54,3.71741,0.125415,0.456558
444.0,7.94293e-56,2.95226e-55,3.71978,0.125415,0.456558
448.0,-2.15574e-55,-8.01309e-55,3.71683,0.125415,0.456558
452.0,-6.7868e-55,-2.52289e-54,3.71933,0.125415,0.456558
456.0,-3.77492e-55,-1.40336e-54,3.7167,0.125415,0.456558
460.0,-2.38624e-56,-8.87156e-56,3.71811,0.125415,0.456558
464.0,5.24603e-56,1.95048e-55,3.7171,0.125415,0.456558
468.0,-0.301081,-1.12234,3.72805,0.125248,0.455934
472.0,-0.267239,-0.996089,3.72807,0.125012,0.455055
476.0,-2.25604e-59,-8.3909e-59,3.71826,0.125012,0.455055
480.0,9.55273e-60,3.55302e-59,3.71861,0.125012,0.455055
484.0,-0.000286021,-0.00106385,3.71836,0.125012,0.455055
488.0,-0.301308,-1.12371,3.72843,0.124677,0.453806
492.0,-0.680577,-2.54688,3.74302,0.124019,0.451344
496.0,-0.628247,-2.35098,3.74119,0.123299,0.44865
500.0,-0.865401,-3.24603,3.75061,0.122317,0.444968
504.0,-1.0832,-4.07203,3.7599,0.121114,0.440446
508.0,-1.48901,-5.61854,3.77392,0.119459,0.434204
512.0,-1.44741,-5.46357,3.77324,0.117828,0.428048
516.0,-1.40062,-5.28806,3.77624,0.116254,0.422104
520.0,-1.37939,-5.20955,3.77529,0.114713,0.416284
524.0,-1.32331,-4.99773,3.7777,0.113208,0.4106
528.0,-1.16551,-4.39786,3.7724,0.111841,0.40544
532.0,-0.000140934,-0.000526842,3.737,0.110974,0.402172
536.0,-0.000221503,-0.00082782,3.73717,0.110474,0.400292
540.0,-0.300024,-1.12371,3.74662,0.110198,0.399259
544.0,-0.300079,-1.12371,3.74278,0.109864,0.39801
548.0,-0.293159,-1.09758,3.7425,0.109533,0.396769
552.0,-0.259723,-0.971965,3.74379,0.109311,0.395938
556.0,2.31865e-42,8.65629e-42,3.73305,0.109311,0.395937
560.0,-3.32e-42,-1.23919e-41,3.73184,0.109311,0.395937
564.0,-1.68303e-42,-6.28078e-42,3.73182,0.109311,0.395937
568.0,-3.08032e-42,-1.14935e-41,3.73222,0.109311,0.395937
572.0,-5.48665e-42,-2.04697e-41,3.73075,0.109311,0.395937
576.0,-2.9211e-42,-1.0897e-41,3.73085,0.109311,0.395937
580.0,-2.89224e-42,-1.07884e-41,3.73017,0.109311,0.395937
584.0,-4.15822e-42,-1.55094e-41,3.72898,0.109311,0.395937
588.0,-0.0931228,-0.347578,3.73255,0.109285,0.395841
592.0,-0.000205173,-0.000765249,3.73077,0.109149,0.395335
596.0,-0.300506,-1.12371,3.7371,0.108815,0.394086
600.0,-0.69188,-2.59596,3.75305,0.108264,0.392019
604.0,-1.08064,-4.06843,3.76473,0.107387,0.388726
608.0,-1.08014,-4.06884,3.76827,0.106188,0.384211
612.0,-1.08027,-4.0713,3.76957,0.104989,0.379689
616.0,-1.47916,-5.59483,3.78202,0.10334,0.373454
620.0,-1.48414,-5.61729,3.78518,0.101692,0.367219
624.0,-1.42273,-5.38523,3.78396,0.100079,0.361114
628.0,-1.2621,-4.77345,3.78224,0.0985966,0.355505
632.0,-1.05845,-3.99791,3.77799,0.0973318,0.350725
636.0,-0.832341,-3.13798,3.77025,0.096557,0.347801
640.0,-2.88219e-51,-1.079e-50,3.74277,0.0961373,0.34622
644.0,-0.323734,-1.21474,3.75114,0.0959468,0.345505
648.0,-0.299586,-1.12371,3.75102,0.0956179,0.344271
652.0,-0.670533,-2.52276,3.76335,0.0949668,0.341823
656.0,-0.609292,-2.29145,3.76119,0.094261,0.339168
660.0,-0.504262,-1.8945,3.75675,0.0939782,0.338105
664.0,-0.689884,-2.59596,3.76223,0.0933161,0.335615
668.0,-1.48353,-5.61835,3.78634,0.0920572,0.330858
672.0,-1.48189,-5.61576,3.7898,0.0904153,0.324638
676.0,-1.64435,-6.24253,3.79622,0.0886243,0.317841
680.0,-1.54252,-5.8549,3.79503,0.0868651,0.311164
684.0,-1.39957,-5.30891,3.79157,0.0852462,0.305021
688.0,-1.15818,-4.38633,3.78694,0.0838525,0.299739
692.0,-5.86945e-05,-0.000220211,3.75124,0.0829979,0.296505
696.0,-5.34932e-05,-0.000200616,3.75207,0.0826141,0.295058
700.0,-9.1527e-55,-3.43064e-54,3.75058,0.0826141,0.295058
704.0,1.69946e-58,6.36723e-58,3.74624,0.0826141,0.295058
708.0,7.95813e-59,2.98058e-58,3.74443,0.0826141,0.295058
712.0,-2.13936e-58,-8.0103e-58,3.74434,0.0826141,0.295058
716.0,-6.39339e-58,-2.39328e-57,3.74342,0.0826141,0.295058
720.0,-9.68809e-59,-3.62585e-58,3.74247,0.0826141,0.295058
724.0,2.08716e-57,7.81e-57,3.74202,0.0826141,0.295058
728.0,1.13364e-57,4.24133e-57,3.74202,0.0826141,0.295058
732.0,2.04535e-58,7.65133e-58,3.74055,0.0826141,0.295058
736.0,-3.38848e-59,-1.26743e-58,3.74201,0.0826141,0.295058
740.0,-1.06473e-58,-3.98208e-58,3.7414,0.0826141,0.295058
744.0,-1.509e-58,-5.64314e-58,3.74009,0.0826141,0.295058
748.0,2.36336e-60,8.83739e-60,3.73991,0.0826141,0.295058
752.0,5.80062e-59,2.16888e-58,3.73739,0.0826141,0.295058
756.0,4.9968e-59,1.86821e-58,3.73749,0.0826141,0.295058
760.0,1.51589e-59,5.66728e-59,3.73893,0.0826141,0.295058
764.0,2.39987e-61,8.97159e-61,3.73842,0.0826141,0.295058
768.0,-4.32233e-59,-1.61577e-58,3.73901,0.0826141,0.295058
772.0,-1.59103e-59,-5.94728e-59,3.73902,0.0826141,0.295058
776.0,-6.33726e-60,-2.36878e-59,3.7387,0.0826141,0.295058
780.0,-9.7236e-61,-3.63441e-60,3.7382,0.0826141,0.295058
784.0,5.3977e-05,0.000201714,3.73709,0.0828218,0.295829
788.0,2.9858e-61,1.1158e-60,3.73718,0.0828218,0.295829
792.0,-6.36302e-62,-2.37786e-61,3.73627,0.0828218,0.295829
796.0,2.3095e-66,8.6305e-66,3.73812,0.0828218,0.295829
800.0,-1.14563e-66,-4.28111e-66,3.73763,0.0828218,0.295829
804.0,-1.17143e-66,-4.37746e-66,3.73781,0.0828218,0.295829
808.0,2.81064e-66,1.05028e-65,3.73629,0.0828218,0.295829
812.0,0.373577,1.39167,3.72765,0.0829256,0.296216
816.0,0.671971,2.49633,3.71484,0.0835473,0.298528
820.0,-4.56252e-57,-1.70419e-56,3.73484,0.0835473,0.298528
824.0,-9.87619e-58,-3.68915e-57,3.73682,0.0835473,0.298528
828.0,-4.35325e-58,-1.62617e-57,3.7349,0.0835473,0.298528
832.0,5.67207e-59,2.11886e-58,3.73495,0.0835473,0.298528
836.0,1.08604e-58,4.05708e-58,3.73577,0.0835473,0.298528
840.0,-0.0931948,-0.348415,3.73875,0.0835214,0.298431
844.0,-6.0374e-50,-2.25547e-49,3.73535,0.0834956,0.298334
848.0,-3.95785e-50,-1.47859e-49,3.73669,0.0834956,0.298334
852.0,-0.293076,-1.09761,3.74601,0.0833049,0.29762
856.0,-0.253496,-0.949186,3.74454,0.0830884,0.296809
860.0,-0.690605,-2.59543,3.75764,0.0826776,0.295269
864.0,-0.690456,-2.59596,3.75925,0.0819103,0.292384
868.0,-1.05258,-3.97065,3.77151,0.0808306,0.288314
872.0,-0.980043,-3.69681,3.77023,0.0797086,0.284081
876.0,-0.951355,-3.58919,3.76941,0.0786465,0.280075
880.0,-1.07135,-4.04711,3.77794,0.0775236,0.275835
884.0,-1.48231,-5.61953,3.79036,0.0760455,0.270238
888.0,-2.24449,-8.56039,3.81386,0.0738682,0.261951
892.0,-2.23035,-8.51458,3.81751,0.0713787,0.252451
896.0,-2.16312,-8.26152,3.82004,0.0689412,0.243142
900.0,-2.05107,-7.83329,3.81864,0.066615,0.234258
904.0,-1.80509,-6.88599,3.81467,0.0644868,0.226135
908.0,-0.000178152,-0.000670202,3.76129,0.063131,0.220968
912.0,-1.14673e-56,-4.31001e-56,3.75906,0.063131,0.220968
916.0,4.46321e-57,1.67637e-56,3.75624,0.063131,0.220968
920.0,4.21215e-58,1.58125e-57,3.75305,0.063131,0.220968
924.0,-1.72233e-57,-6.46292e-57,3.75085,0.063131,0.220968
928.0,-3.79485e-57,-1.42349e-56,3.75174,0.063131,0.220968
932.0,1.14482e-05,4.2931e-05,3.75057,0.063131,0.220968
936.0,0.649704,2.42211,3.72809,0.0637088,0.223125
940.0,1.07021,3.97362,3.71304,0.0647331,0.226933
944.0,1.30268,4.82423,3.70442,0.0661018,0.232006
948.0,2.44271e-59,9.13984e-59,3.74294,0.0661018,0.232006
952.0,3.60621e-64,1.34943e-63,3.74175,0.0661018,0.232006
956.0,4.03118e-64,1.50849e-63,3.73988,0.0661018,0.232006
960.0,-1.51129e-64,-5.65536e-64,3.74393,0.0661018,0.232006
964.0,-1.1647e-63,-4.35834e-63,3.74132,0.0661018,0.232006
968.0,0.736389,2.73903,3.7198,0.0663065,0.232767
972.0,1.02822,3.81348,3.70915,0.0673202,0.236531
976.0,1.41211,5.2185,3.69413,0.0687092,0.241671
980.0,1.83685,6.76183,3.68158,0.0705823,0.248575
984.0,2.3978,8.785,3.66526,0.0729963,0.257435
988.0,2.98239,10.8742,3.64612,0.0760669,0.26865
992.0,2.46574,9.00925,3.65528,0.0789458,0.279164
996.0,1.94799,7.13636,3.66308,0.0814919,0.288472
1000.0,1.60953,5.909,3.67301,0.0832807,0.29504
1004.0,2.2399e-53,8.3286e-53,3.71789,0.0837278,0.296681
1008.0,2.64548e-57,9.84387e-57,3.72237,0.0837278,0.296681
1012.0,4.36655e-58,1.62569e-57,3.72324,0.0837278,0.296681
1016.0,1.15035,4.2442,3.69052,0.0846691,0.300155
1020.0,1.25659,4.63078,3.686,0.0860152,0.305118
1024.0,1.40741,5.17882,3.67849,0.0875161,0.310644
1028.0,1.5079,5.54223,3.67703,0.089162,0.316695
1032.0,-1.61226e-70,-5.99788e-70,3.72087,0.089162,0.316695
1036.0,-4.01417e-74,-1.49409e-73,3.72196,0.089162,0.316695
1040.0,1.01203,3.73736,3.69307,0.0897138,0.318733
1044.0,1.17071,4.31659,3.68861,0.0909427,0.323267
1048.0,1.41927,5.22129,3.67865,0.0923961,0.328619
1052.0,1.802,6.60763,3.66564,0.0942385,0.335383
1056.0,2.15658,7.88336,3.65527,0.0964991,0.343655
1060.0,2.29235,8.3658,3.65113,0.0990257,0.352879
1064.0,2.13148,7.78184,3.65123,0.101483,0.361849
1068.0,2.13257,7.78184,3.64881,0.103852,0.370495
1072.0,2.1314,7.77407,3.6481,0.106222,0.37914
1076.0,1.63099,5.96822,3.65969,0.108022,0.385728
1080.0,1.61292,5.90207,3.6578,0.109838,0.392373
1084.0,8.06217e-60,2.98889e-59,3.70832,0.109838,0.392373
1088.0,4.24861e-63,1.57626e-62,3.70857,0.109838,0.392373
1092.0,1.43196e-63,5.31576e-63,3.71306,0.109838,0.392373
1096.0,-6.73752e-63,-2.50232e-62,3.71445,0.109838,0.392373
1100.0,0.856986,3.16187,3.68926,0.1103,0.394077
1104.0,1.05939,3.90155,3.68386,0.111393,0.398104
1108.0,1.3441,4.93787,3.6734,0.112757,0.403119
1112.0,1.52417,5.58971,3.66742,0.114366,0.409026
1116.0,1.80988,6.62083,3.65777,0.116258,0.415953
1120.0,1.96464,7.17524,3.65231,0.118413,0.423826
1124.0,1.61488,5.90935,3.66024,0.12044,0.431235
1128.0,1.62651,5.94991,3.65763,0.122246,0.437839
1132.0,1.67813,6.1349,3.65651,0.12409,0.444583
1136.0,1.75817,6.42208,3.65288,0.126007,0.451588
1140.0,1.7782,6.4923,3.65092,0.128005,0.458884
1144.0,1.61657,5.90727,3.65484,0.129936,0.465933
1148.0,-6.03655e-47,-2.23438e-46,3.70171,0.130338,0.467407
1152.0,-8.81997e-55,-3.26712e-54,3.70329,0.130338,0.467407
1156.0,-6.00044e-54,-2.22403e-53,3.70694,0.130338,0.467407
1160.0,-2.49365e-51,-9.24706e-51,3.70735,0.130338,0.467407
1164.0,-8.36834e-52,-3.10446e-51,3.71015,0.130338,0.467407
1168.0,-9.09375e-52,-3.37475e-51,3.711,0.130338,0.467407
1172.0,-3.81911e-52,-1.41772e-51,3.71155,0.130338,0.467407
1176.0,-1.96038e-52,-7.27923e-52,3.71343,0.130338,0.467407
1180.0,5.96286e-52,2.21463e-51,3.71519,0.130338,0.467407
1184.0,4.65367e-51,1.72875e-50,3.71494,0.130338,0.467407
1188.0,6.94345e-58,2.57984e-57,3.71366,0.130338,0.467407
1192.0,4.91046e-57,1.82478e-56,3.71556,0.130338,0.467407
1196.0,9.39031e-59,3.49007e-58,3.71628,0.130338,0.467407
1200.0,9.91852e-61,3.68689e-60,3.71821,0.130338,0.467407
1204.0,2.7846e-61,1.03521e-60,3.71619,0.130338,0.467407
1208.0,-0.301527,-1.124,3.72688,0.130089,0.466475
1212.0,-0.508341,-1.89888,3.73453,0.129524,0.464366
1216.0,-0.681271,-2.54949,3.741,0.12881,0.461694
1220.0,-1.08276,-4.06643,3.75473,0.127936,0.45842
1224.0,-1.02313,-3.84319,3.75608,0.126758,0.453996
1228.0,-1.08215,-4.06871,3.75933,0.125637,0.449783
1232.0,-0.996277,-3.74516,3.75907,0.124488,0.445462
1236.0,-0.922005,-3.46519,3.7578,0.123439,0.441521
1240.0,-1.26498,-4.76846,3.76963,0.122227,0.436958
1244.0,-1.258,-4.74434,3.77331,0.120824,0.431666
1248.0,-1.47297,-5.56689,3.77847,0.119241,0.425688
1252.0,-1.48555,-5.61798,3.78233,0.117598,0.419474
1256.0,-1.45121,-5.48938,3.78271,0.11597,0.413317
1260.0,-2.03005,-7.71529,3.80038,0.113806,0.405101
1264.0,-1.99056,-7.56883,3.8033,0.111578,0.396629
1268.0,-1.86151,-7.07621,3.79975,0.109449,0.388536
1272.0,-1.63795,-6.21941,3.79715,0.107511,0.381173
1276.0,-0.000114665,-0.000429815,3.74827,0.106306,0.376601
1280.0,1.2957e-52,4.85278e-52,3.74382,0.106306,0.376601
1284.0,1.50071e-53,5.61717e-53,3.7428,0.106306,0.376601
1288.0,-5.67111e-05,-0.000212169,3.7399,0.106306,0.376601
1292.0,-5.16454e-48,-1.93147e-47,3.74018,0.10628,0.376505
1296.0,5.10851e-50,1.90992e-49,3.73914,0.10628,0.376505
1300.0,0.262944,0.980644,3.73046,0.106353,0.376778
1304.0,0.601715,2.23669,3.71737,0.106885,0.378756
1308.0,0.909509,3.3704,3.70536,0.107767,0.382029
1312.0,5.40428e-05,0.000201621,3.72915,0.10863,0.385223
1316.0,2.3452e-61,8.75018e-61,3.73132,0.10863,0.385223
1320.0,7.21735e-66,2.69296e-65,3.733,0.10863,0.385223
1324.0,2.08842e-66,7.79241e-66,3.73037,0.10863,0.385223
1328.0,-1.05336e-65,-3.93033e-65,3.73197,0.10863,0.385223
1332.0,-2.78343e-65,-1.03855e-64,3.73019,0.10863,0.385223
1336.0,-3.13504e-65,-1.16972e-64,3.73121,0.10863,0.385223
1340.0,-4.13862e-65,-1.54414e-64,3.73053,0.10863,0.385223
1344.0,1.44254e-65,5.38209e-65,3.73092,0.10863,0.385223
1348.0,6.24157e-65,2.32868e-64,3.73075,0.10863,0.385223
1352.0,0.000101331,0.000378051,3.72984,0.10863,0.385223
1356.0,5.78849e-59,2.15869e-58,3.729,0.109293,0.387672
1360.0,1.1711,4.32494,3.6916,0.110247,0.391196
1364.0,3.13057e-54,1.16653e-53,3.72587,0.110918,0.393675
1368.0,1.64033e-59,6.11348e-59,3.7274,0.110918,0.393675
1372.0,6.8017e-59,2.53532e-58,3.72719,0.110918,0.393675
1376.0,-0.0934147,-0.348508,3.73201,0.110866,0.393481
1380.0,-0.507294,-1.89941,3.74273,0.110533,0.392232
1384.0,-1.28474,-4.84268,3.77154,0.10932,0.387668
1388.0,-1.28362,-4.84227,3.77219,0.107904,0.38233
1392.0,-1.26988,-4.79317,3.77384,0.106482,0.376963
1396.0,-1.19599,-4.51429,3.77343,0.105119,0.371818
1400.0,-1.05313,-3.97236,3.77286,0.10389,0.367178
1404.0,-0.879416,-3.31349,3.76767,0.102836,0.363207
1408.0,-5.57521e-53,-2.08552e-52,3.74069,0.102386,0.361512
1412.0,-2.16262e-57,-8.08652e-57,3.73971,0.102386,0.361512
1416.0,-0.690067,-2.59468,3.76092,0.101958,0.359905
1420.0,-1.08016,-4.07531,3.77198,0.100918,0.355986
1424.0,-1.28068,-4.8418,3.77995,0.099495,0.350606
1428.0,-1.21352,-4.58774,3.78037,0.098113,0.345381
1432.0,-1.11752,-4.22322,3.77832,0.0968271,0.340521
1436.0,-1.00631,-3.80061,3.77633,0.0956626,0.336122
1440.0,-0.844063,-3.18421,3.77233,0.0946433,0.332274
1444.0,-7.81139e-05,-0.000292565,3.7455,0.0944236,0.331446
1448.0,-0.36946,-1.38777,3.75758,0.0939363,0.329614
1452.0,-0.154584,-0.579441,3.7473,0.0938419,0.32926
1456.0,-0.0930548,-0.34854,3.7466,0.0937299,0.328841
1460.0,-3.71125e-51,-1.38864e-50,3.74116,0.0937041,0.328744
1464.0,6.07625e-52,2.27303e-51,3.74133,0.0937041,0.328744
1468.0,-0.00038687,-0.00144694,3.7401,0.093704,0.328744
1472.0,-0.690243,-2.59596,3.75901,0.0934346,0.327732
1476.0,-0.629644,-2.36765,3.75951,0.0927028,0.32498
1480.0,-0.578826,-2.17611,3.76121,0.0920386,0.322482
1484.0,-0.50168,-1.88495,3.75714,0.0915996,0.320833
1488.0,-0.49833,-1.87249,3.75855,0.0910441,0.318745
1492.0,-6.39491e-05,-0.0002393,3.74337,0.0907845,0.31777
1496.0,7.76307e-58,2.90425e-57,3.74147,0.0907845,0.31777
1500.0,7.16745e-59,2.68089e-58,3.74111,0.0907845,0.31777
1504.0,-1.12843e-59,-4.2201e-59,3.73791,0.0907845,0.31777
1508.0,4.79802e-60,1.79412e-59,3.73885,0.0907845,0.31777
1512.0,-0.000129566,-0.000484448,3.7391,0.0907328,0.317577
1516.0,-0.89484,-3.37029,3.76619,0.0902919,0.315919
1520.0,-0.894436,-3.37049,3.76967,0.0893033,0.312194
1524.0,-0.000167322,-0.000626192,3.73947,0.0885838,0.309483
1528.0,-4.70016e-52,-1.75851e-51,3.74187,0.0885838,0.309483
1532.0,2.12775e-53,7.95908e-53,3.74117,0.0885838,0.309483
1536.0,5.06183e-53,1.89313e-52,3.74,0.0885838,0.309483
1540.0,-1.13815e-53,-4.25615e-53,3.74151,0.0885838,0.309483
1544.0,-0.0930267,-0.348107,3.7412,0.0885578,0.309386
1548.0,-0.894748,-3.37061,3.76708,0.0878999,0.306911
1552.0,-1.07852,-4.07068,3.77508,0.0868602,0.302991
1556.0,-1.26695,-4.79174,3.78044,0.0854429,0.297632
1560.0,-1.48237,-5.61854,3.79076,0.0839772,0.292084
1564.0,-1.86441,-7.09002,3.80375,0.0822242,0.285432
1568.0,-1.81682,-6.91247,3.80506,0.0801829,0.277667
1572.0,-1.70176,-6.4737,3.80385,0.0782434,0.270288
1576.0,-1.51746,-5.76771,3.80174,0.0764798,0.263582
1580.0,-1.28183,-4.865,3.79495,0.0749607,0.257813
1584.0,-1.07408,-4.07047,3.78973,0.0736859,0.25298
1588.0,-0.852741,-3.22596,3.78385,0.0726597,0.249095
1592.0,-0.742456,-2.80596,3.78059,0.0717888,0.245803
1596.0,-0.687286,-2.59596,3.77541,0.0710175,0.242889
1600.0,-1.07388,-4.06816,3.78767,0.0701463,0.239595
1604.0,-1.27651,-4.84483,3.79419,0.0687282,0.234214
1608.0,-2.23941,-8.56279,3.82388,0.0664008,0.225325
1612.0,-2.4231,-9.28441,3.83233,0.0638141,0.215423
1616.0,-2.34205,-8.97697,3.83397,0.0611738,0.205304
1620.0,-2.20822,-8.46239,3.83206,0.0586614,0.195674
1624.0,-1.93387,-7.40104,3.82641,0.0563846,0.186956
1628.0,2.90484e-54,1.09487e-53,3.77045,0.0553897,0.183151
1632.0,-9.87428e-57,-3.71808e-56,3.76773,0.0553897,0.183151
1636.0,5.42078e-60,2.03963e-59,3.76271,0.0553897,0.183151
1640.0,1.66054e-59,6.24425e-59,3.76096,0.0553897,0.183151
1644.0,8.08472e-59,3.03869e-58,3.75725,0.0553897,0.183151
1648.0,-1.8502e-59,-6.95127e-59,3.75702,0.0553897,0.183151
1652.0,-2.41001e-59,-9.05136e-59,3.75574,0.0553897,0.183151
1656.0,-3.743e-05,-0.000140538,3.75551,0.0553639,0.183054
1660.0,-0.503511,-1.89799,3.77204,0.0551467,0.182237
1664.0,-0.68711,-2.59421,3.77604,0.0545358,0.179933
1668.0,-0.689018,-2.60198,3.77891,0.0537715,0.177046
1672.0,-1.07399,-4.06945,3.78941,0.0526292,0.17272
1676.0,-1.27569,-4.84338,3.79664,0.0512116,0.167339
1680.0,-1.27514,-4.84338,3.79722,0.0497945,0.161957
1684.0,-1.27458,-4.84302,3.79985,0.0483838,0.156598
1688.0,-1.24868,-4.74523,3.80186,0.0469786,0.151258
1692.0,-1.27404,-4.84378,3.80236,0.0455998,0.146018
1696.0,-1.64997,-6.293,3.81482,0.0438117,0.139201
1700.0,-1.65502,-6.31553,3.81629,0.0419756,0.132196
1704.0,-1.59506,-6.0867,3.81722,0.0401677,0.125296
1708.0,-1.46969,-5.6049,3.81451,0.0384759,0.118843
1712.0,6.33273e-60,2.38667e-59,3.76954,0.0376987,0.11588
1716.0,-3.04176e-63,-1.1455e-62,3.76584,0.0376987,0.11588
1720.0,-9.55223e-64,-3.59522e-63,3.76442,0.0376987,0.11588
1724.0,1.73725e-63,6.53553e-63,3.76242,0.0376987,0.11588
1728.0,-0.00024273,-0.000912802,3.76121,0.0376986,0.115879
1732.0,-0.092637,-0.34854,3.7625,0.0375957,0.115492
1736.0,-0.0926363,-0.348459,3.76031,0.0374927,0.115105
1740.0,-2.1037e-51,-7.90517e-51,3.75799,0.0374927,0.115105
1744.0,1.18389e-52,4.44773e-52,3.75721,0.0374927,0.115105
1748.0,1.06492e-52,4e-52,3.75627,0.0374927,0.115105
1752.0,1.89004e-52,7.098e-52,3.75569,0.0374927,0.115105
1756.0,-0.298508,-1.12371,3.76375,0.0373011,0.114383
1760.0,-0.298493,-1.12371,3.76534,0.0369694,0.113135
1764.0,-0.857212,-3.24239,3.783,0.0361553,0.110057
1768.0,-0.777077,-2.93845,3.78054,0.0352585,0.106665
1772.0,-2.06131e-45,-7.74415e-45,3.75696,0.0352584,0.106665
1776.0,-2.85605e-05,-0.000107272,3.75639,0.0352584,0.106665
1780.0,-0.41626,-1.56888,3.76891,0.0347667,0.104812
1784.0,-0.503395,-1.89888,3.77034,0.0342074,0.102702
1788.0,-0.503339,-1.89888,3.77194,0.0336482,0.100592
1792.0,-0.000205844,-0.000773484,3.75826,0.0331305,0.098637
1796.0,-0.549073,-2.0719,3.77259,0.032978,0.0980615
1800.0,5.00427e-60,1.87961e-59,3.75636,0.0329779,0.0980614
1804.0,-2.36421e-61,-8.87827e-61,3.75368,0.0329779,0.0980614
1808.0,-2.30749e-61,-8.66382e-61,3.75493,0.0329779,0.0980614
1812.0,1.07128e-61,4.02171e-61,3.7529,0.0329779,0.0980614
1816.0,0.762853,2.84575,3.73255,0.0331899,0.0988519
1820.0,1.59472,5.90649,3.70258,0.0346147,0.104141
1824.0,1.65376,6.11636,3.69935,0.036417,0.110811
1828.0,1.76766,6.52654,3.69073,0.0383251,0.117861
1832.0,1.92008,7.07577,3.68545,0.0403862,0.125462
1836.0,2.09478,7.70387,3.67833,0.042642,0.133764
1840.0,2.21303,8.12552,3.67066,0.045053,0.142622
1844.0,2.12942,7.81703,3.67176,0.0474124,0.151286
1848.0,1.94506,7.14441,3.67163,0.0497197,0.159755
1852.0,1.30164,4.80267,3.68963,0.0509775,0.164387
1856.0,1.39491,5.14253,3.6854,0.0524829,0.169939
1860.0,1.53597,5.65538,3.68166,0.0541295,0.176005
1864.0,1.68542,6.19695,3.67553,0.0559398,0.182664
1868.0,1.86138,6.83276,3.67144,0.0579275,0.189965
1872.0,2.12803,7.79348,3.66091,0.0601841,0.198237
1876.0,2.29854,8.40345,3.65579,0.0626675,0.207322
1880.0,2.46848,9.00914,3.6483,0.0653394,0.217079
1884.0,1.78815,6.55326,3.66703,0.0674145,0.22468
1888.0,1.44919,5.32612,3.67621,0.0682165,0.227628
1892.0,1.48427,5.45296,3.67452,0.0698494,0.233628
1896.0,1.54195,5.66162,3.6715,0.0715332,0.239812
1900.0,1.59433,5.85059,3.67003,0.0732921,0.246268
1904.0,1.6465,6.0385,3.66717,0.0750867,0.252851
1908.0,1.80081,6.59559,3.66171,0.0770084,0.259894
1912.0,2.03096,7.42407,3.65623,0.0791881,0.267866
1916.0,1.95237,7.13743,3.65689,0.0814646,0.276185
1920.0,1.79692,6.57445,3.65993,0.0834949,0.283612
1924.0,1.82554,6.67637,3.657,0.0855142,0.290998
1928.0,1.61402,5.91058,3.66158,0.0873708,0.297794
1932.0,4.23196e-54,1.56971e-53,3.70894,0.0878202,0.29944
1936.0,-4.05981e-58,-1.50712e-57,3.71286,0.0878202,0.29944
1940.0,-4.72951e-58,-1.7569e-57,3.71562,0.0878202,0.29944
1944.0,4.33874e-58,1.61261e-57,3.7172,0.0878202,0.29944
1948.0,1.10069e-57,4.09286e-57,3.71875,0.0878202,0.29944
1952.0,9.05759e-58,3.36931e-57,3.71925,0.0878202,0.29944
1956.0,-0.00010086,-0.000375312,3.72358,0.0878201,0.299439
1960.0,-0.300676,-1.12197,3.73103,0.0876586,0.298837
1964.0,-0.301005,-1.12371,3.73289,0.0873241,0.297589
1968.0,-0.486708,-1.82054,3.7406,0.0868252,0.295723
1972.0,-0.692318,-2.59509,3.74789,0.0862178,0.293449
1976.0,-0.686178,-2.57334,3.75045,0.0854503,0.290571
1980.0,-1.28463,-4.84338,3.7709,0.0841304,0.285599
1984.0,-1.25124,-4.71999,3.77134,0.0827234,0.280293
1988.0,-1.1677,-4.4049,3.77213,0.0813827,0.275235
1992.0,-1.12641,-4.24999,3.77401,0.0801107,0.270436
1996.0,-1.07637,-4.06139,3.77494,0.0788935,0.265843
2000.0,-0.92023,-3.4692,3.76943,0.0777985,0.261713
2004.0,-0.769008,-2.89621,3.76559,0.0768809,0.258256
2008.0,-0.419131,-1.57412,3.75483,0.0762463,0.255869
2012.0,-4.61377e-46,-1.72632e-45,3.73998,0.0761601,0.255546
2016.0,1.25319e-46,4.68765e-46,3.7407,0.0761601,0.255546
2020.0,-1.74043e-47,-6.5088e-47,3.73879,0.0761601,0.255546
2024.0,-1.38063e-46,-5.16237e-46,3.73779,0.0761601,0.255546
2028.0,-7.67411e-46,-2.86906e-45,3.73842,0.0761601,0.255546
2032.0,-3.97828e-47,-1.48717e-46,3.73849,0.0761601,0.255546
2036.0,-5.18431e-46,-1.93783e-45,3.74023,0.0761601,0.255546
2040.0,-2.58229e-46,-9.65156e-46,3.73822,0.0761601,0.255546
2044.0,-2.562e-46,-9.57512e-46,3.7368,0.0761601,0.255546
2048.0,-7.92479e-46,-2.96162e-45,3.73573,0.0761601,0.255546
2052.0,8.06477e-51,3.0138e-50,3.73611,0.0761601,0.255546
2056.0,3.29349e-51,1.23073e-50,3.73695,0.0761601,0.255546
2060.0,9.03909e-53,3.37766e-52,3.73742,0.0761601,0.255546
2064.0,-1.98535e-56,-7.41852e-56,3.73602,0.0761601,0.255546
2068.0,-1.45714e-56,-5.44467e-56,3.73582,0.0761601,0.255546
2072.0,-8.03876e-05,-0.000300365,3.73616,0.07616,0.255546
2076.0,-0.506003,-1.89888,3.75395,0.0757124,0.253866
2080.0,-0.690479,-2.59596,3.75946,0.0749963,0.251175
2084.0,-0.671798,-2.52625,3.75976,0.0742396,0.24833
2088.0,-0.631303,-2.37388,3.7609,0.0735194,0.245621
2092.0,-0.608983,-2.29004,3.76128,0.0728333,0.243041
2096.0,-0.544136,-2.04547,3.75747,0.0722015,0.240666
2100.0,1.67861e-58,6.282e-58,3.74286,0.071913,0.239582
2104.0,-2.52433e-59,-9.44478e-59,3.74293,0.071913,0.239582
2108.0,-2.39732e-59,-8.96808e-59,3.74147,0.071913,0.239582
2112.0,9.07177e-59,3.39319e-58,3.73945,0.071913,0.239582
2116.0,5.69459e-58,2.12977e-57,3.73952,0.071913,0.239582
2120.0,-9.49855e-05,-0.000355214,3.73859,0.071913,0.239582
2124.0,-0.000113995,-0.000426286,3.73951,0.0718612,0.239388
2128.0,-0.0924608,-0.346,3.7423,0.0718355,0.239292
2132.0,-3.1595e-38,-1.18139e-37,3.73815,0.0718096,0.239195
2136.0,-7.87054e-05,-0.000294282,3.73854,0.0717837,0.239098
2140.0,-8.88208e-42,-3.32087e-41,3.74041,0.0717837,0.239098
2144.0,-0.0930957,-0.348324,3.74162,0.0717578,0.239001
2148.0,-0.299461,-1.12239,3.74926,0.0715969,0.238398
2152.0,-0.505678,-1.89888,3.75601,0.0711513,0.236726
2156.0,-0.505541,-1.89888,3.75548,0.0705895,0.234616
2160.0,-0.893936,-3.36938,3.76881,0.0697056,0.231287
2164.0,-0.827195,-3.11751,3.76719,0.0687523,0.227694
2168.0,8.70328e-46,3.25853e-45,3.74328,0.06831,0.226027
2172.0,-0.307804,-1.15507,3.75097,0.0682245,0.225706
2176.0,0.180107,0.673077,3.73686,0.0682081,0.225644
2180.0,0.000395533,0.00147971,3.74206,0.0685784,0.227024
2184.0,1.19534,4.42659,3.70313,0.06966,0.231037
2188.0,1.60909,5.93536,3.6888,0.0712949,0.237075
2192.0,2.11949,7.78184,3.67116,0.0736248,0.245634
2196.0,1.60602,5.9116,3.67982,0.0758377,0.25376
2200.0,7.18982e-54,2.67986e-53,3.72602,0.0762836,0.255401
2204.0,-1.42243e-57,-5.30427e-57,3.72996,0.0762836,0.255401
2208.0,-3.65034e-59,-1.36166e-58,3.7315,0.0762836,0.255401
2212.0,7.48349e-58,2.7922e-57,3.73104,0.0762836,0.255401
2216.0,1.261e-57,4.70589e-57,3.73174,0.0762836,0.255401
2220.0,-3.56865e-58,-1.33197e-57,3.73288,0.0762836,0.255401
2224.0,-0.000139908,-0.000522263,3.73246,0.0762836,0.255401
2228.0,2.83867e-54,1.05981e-53,3.7322,0.0762002,0.255089
2232.0,-0.300185,-1.12371,3.74231,0.07595,0.254152
2236.0,-0.299414,-1.12098,3.74425,0.0757834,0.253529
2240.0,-0.286303,-1.07203,3.74521,0.0754557,0.252302
2244.0,-8.71719e-06,-3.25699e-05,3.73595,0.0752288,0.251452
2248.0,-1.62588e-62,-6.07479e-62,3.73627,0.0751608,0.251197
2252.0,-0.000192521,-0.000719303,3.73741,0.0751607,0.251197
2256.0,-0.29991,-1.12331,3.7448,0.0750431,0.250757
2260.0,-0.254121,-0.95154,3.74501,0.0748893,0.250181
2264.0,-0.505954,-1.89888,3.75147,0.0743987,0.24834
2268.0,-1.48393,-5.61348,3.78322,0.0734053,0.244595
2272.0,-1.8674,-7.09017,3.79733,0.0715464,0.237549
2276.0,-1.83459,-6.97112,3.79932,0.0694973,0.229765
2280.0,-2.0262,-7.71618,3.80863,0.0673304,0.221519
2284.0,-2.03049,-7.73943,3.81313,0.0650845,0.212962
2288.0,-1.97175,-7.51829,3.81123,0.0628685,0.204513
2292.0,-1.8647,-7.10935,3.81164,0.0607441,0.196413
2296.0,-1.70425,-6.49346,3.81139,0.0587822,0.188936
2300.0,-1.54742,-5.89119,3.80762,0.0570019,0.182156
2304.0,-1.40133,-5.33047,3.80271,0.055384,0.176
2308.0,-1.25515,-4.76975,3.80091,0.0539284,0.170466
2312.0,-1.1088,-4.20902,3.79604,0.0526354,0.165556
2316.0,-1.27397,-4.84197,3.80073,0.0513876,0.160819
2320.0,-1.46924,-5.5933,3.80624,0.0498616,0.155014
2324.0,-1.84416,-7.04228,3.81961,0.0479141,0.147582
2328.0,-1.80895,-6.90959,3.82016,0.0458741,0.13979
2332.0,-1.67198,-6.38265,3.81713,0.0439574,0.132472
2336.0,-1.58185,-6.0362,3.81561,0.0421759,0.125673
2340.0,-1.51781,-5.79024,3.81487,0.040463,0.119138
2344.0,-1.84658,-7.06329,3.82602,0.0384055,0.111269
2348.0,-1.85304,-7.0908,3.82753,0.036373,0.103494
2352.0,-2.03347,-7.7942,3.83024,0.0341145,0.0948385
2356.0,-2.80361,-10.8059,3.85316,0.0311624,0.0834733
2360.0,-2.73123,-10.5317,3.85687,0.0280941,0.0716437
2364.0,-2.63743,-10.1713,3.85617,0.0251241,0.0601901
2368.0,-2.41791,-9.31693,3.85378,0.022355,0.0495167
2372.0,-2.18001,-8.3902,3.84905,0.0198246,0.0397728
2376.0,-2.03218,-7.81482,3.84536,0.0175381,0.030979
2380.0,-2.02959,-7.80581,3.84564,0.0152821,0.0223027
2384.0,-2.22396,-8.56648,3.85144,0.0128114,0.0127868
2388.0,-2.59809,-10.0359,3.86376,0.00992425,0.00163681
2392.0,-2.95858,-11.4597,3.87319,0.00677925,-0.0105334
2396.0,-2.91277,-11.287,3.87396,0.00351935,-0.0231639
2400.0,-2.95476,-11.4591,3.87826,0.000264487,-0.0357823
2404.0,-2.85538,-11.0733,3.87779,-0.00296,-0.048288
2408.0,-2.63417,-10.206,3.87478,-0.00599557,-0.0600546
2412.0,-2.33472,-9.03071,3.86678,-0.00871517,-0.070581
2416.0,-1.95138,-7.52882,3.8585,-0.0110431,-0.0795717
2420.0,-1.70107,-6.55029,3.84967,-0.0130241,-0.0872051
2424.0,-1.42058,-5.45739,3.84246,-0.0147187,-0.0937215
2428.0,-1.80806,-6.96447,3.85124,-0.0167458,-0.101531
2432.0,-1.76534,-6.79763,3.85086,-0.0187161,-0.109118
2436.0,-2.01854,-7.7869,3.85804,-0.0209589,-0.117769
2440.0,-1.96184,-7.56637,3.85629,-0.0231651,-0.126279
2444.0,-1.85981,-7.16848,3.85375,-0.0252801,-0.134434
2448.0,-1.72856,-6.65658,3.8511,-0.0272472,-0.142011
2452.0,-1.49398,-5.74311,3.8419,-0.0290181,-0.148824
2456.0,-1.17466,-4.50381,3.83271,-0.0304711,-0.154401
2460.0,-0.772666,-2.9519,3.82117,-0.0314855,-0.158282
2464.0,-0.37399,-1.42327,3.80794,-0.0320788,-0.160544
2468.0,-0.478584,-1.82187,3.80437,-0.0326251,-0.162624
2472.0,-0.452378,-1.72093,3.80404,-0.0331385,-0.164578
2476.0,-0.427198,-1.62414,3.80128,-0.0336234,-0.166422
2480.0,-0.668735,-2.54688,3.8086,-0.0343734,-0.169279
2484.0,-0.675593,-2.57272,3.80776,-0.035122,-0.172129
2488.0,-0.681759,-2.59596,3.80693,-0.035876,-0.175001
2492.0,-7.04261e-05,-0.000266629,3.78638,-0.0364334,-0.177123
2496.0,-0.000957527,-0.00362346,3.78503,-0.0365957,-0.17774
2500.0,-1.06582,-4.06732,3.8159,-0.0373625,-0.180659
2504.0,-1.84806,-7.09553,3.83954,-0.0390377,-0.187078
2508.0,-2.97165,-11.5024,3.86856,-0.0420353,-0.198659
2512.0,-2.96473,-11.4901,3.87427,-0.0453347,-0.21144
2516.0,-3.53377,-13.7556,3.8924,-0.049103,-0.226092
2520.0,-3.50446,-13.6569,3.8959,-0.0530158,-0.241334
2524.0,-3.45691,-13.4825,3.90104,-0.0568743,-0.256378
2528.0,-3.47797,-13.579,3.90567,-0.0607678,-0.271576
2532.0,-3.37791,-13.1918,3.90302,-0.0645653,-0.286406
2536.0,-3.27162,-12.7777,3.90455,-0.0682447,-0.300776
2540.0,-3.13448,-12.2394,3.90412,-0.0717882,-0.314614
2544.0,-3.06855,-11.9827,3.90566,-0.0752402,-0.328094
2548.0,-2.91153,-11.3632,3.90264,-0.0785468,-0.341003
2552.0,-2.7629,-10.7763,3.90005,-0.0816751,-0.353207
2556.0,-2.54701,-9.92266,3.89413,-0.0845949,-0.364587
2560.0,-2.2596,-8.78719,3.88816,-0.0872427,-0.374893
2564.0,-1.95428,-7.58332,3.88093,-0.0895341,-0.383791
2568.0,-1.3263,-5.12182,3.86211,-0.0913335,-0.390757
2572.0,-1.05069,-4.04624,3.85107,-0.0925563,-0.395469
2576.0,-1.45453,-5.61533,3.85944,-0.0938412,-0.400421
2580.0,-2.20665,-8.56141,3.88006,-0.0957155,-0.40767
2584.0,-2.77539,-10.8111,3.89381,-0.0985932,-0.418866
2588.0,-2.94935,-11.5082,3.90137,-0.101822,-0.431459
2592.0,-3.33724,-13.0585,3.91364,-0.105315,-0.445108
2596.0,-3.2971,-12.9087,3.9143,-0.109005,-0.459555
2600.0,-3.23274,-12.6603,3.91467,-0.112623,-0.47372
2604.0,-3.08281,-12.0693,3.91582,-0.116118,-0.487407
2608.0,-2.95803,-11.5768,3.91284,-0.119462,-0.500495
2612.0,-2.6475,-10.3451,3.90763,-0.122545,-0.512551
2616.0,-2.35193,-9.1737,3.90104,-0.125267,-0.523176
2620.0,-2.38793,-9.31568,3.89997,-0.127886,-0.533389
2624.0,-2.56999,-10.0382,3.90465,-0.130741,-0.54454
2628.0,-2.75102,-10.7594,3.90974,-0.133806,-0.55653
2632.0,-2.75684,-10.7853,3.91161,-0.13687,-0.568513
2636.0,-2.68952,-10.52,3.91162,-0.139892,-0.580334
2640.0,-2.5194,-9.84599,3.90627,-0.142771,-0.591592
2644.0,-2.25843,-8.81196,3.90218,-0.145398,-0.601847
2648.0,-1.93301,-7.52507,3.8922,-0.147682,-0.610747
2652.0,-1.61742,-6.28085,3.88363,-0.149593,-0.618173
2656.0,-1.44186,-5.58986,3.87672,-0.151257,-0.624631
2660.0,-2.00148,-7.78762,3.89038,-0.153175,-0.63208
2664.0,-2.19785,-8.56368,3.89659,-0.15556,-0.64137
2668.0,-2.1975,-8.56368,3.89755,-0.157998,-0.650871
2672.0,-2.76374,-10.8111,3.91157,-0.160912,-0.662259
2676.0,-3.13,-12.2747,3.92221,-0.164084,-0.674678
2680.0,-3.0892,-12.1196,3.92325,-0.167536,-0.688217
2684.0,-3.12858,-12.2833,3.92442,-0.171013,-0.701866
2688.0,-3.49507,-13.7556,3.93466,-0.174587,-0.715912
2692.0,-3.85894,-15.2285,3.94644,-0.178875,-0.732827
2696.0,-3.85599,-15.2285,3.95015,-0.183161,-0.749748
2700.0,-3.85342,-15.2285,3.95196,-0.187443,-0.766668
2704.0,-3.83338,-15.1569,3.95151,-0.191715,-0.783556
2708.0,-3.84432,-15.2091,3.95594,-0.195977,-0.800412
2712.0,-4.39072,-17.4268,3.96716,-0.200611,-0.818783
2716.0,-4.32483,-17.1731,3.9705,-0.205448,-0.837985
2720.0,-4.29317,-17.0557,3.97457,-0.210225,-0.85696
2724.0,-4.58409,-18.2459,3.98004,-0.215072,-0.876229
2728.0,-4.55546,-18.1423,3.98066,-0.220146,-0.896435
2732.0,-4.44201,-17.6918,3.98349,-0.225133,-0.916294
2736.0,-4.30806,-17.1556,3.98333,-0.229973,-0.93557
2740.0,-4.0796,-16.2339,3.9803,-0.234604,-0.954003
2744.0,-3.74101,-14.8645,3.9724,-0.238919,-0.971159
2748.0,-3.29195,-13.0493,3.96396,-0.242777,-0.986468
2752.0,-3.0133,-11.9237,3.95691,-0.246211,-1.00006
2756.0,-3.10351,-12.2826,3.95854,-0.249417,-1.01274
2760.0,-3.28368,-13.0082,3.96098,-0.253022,-1.02702
2764.0,-3.23826,-12.8258,3.95899,-0.25664,-1.04135
2768.0,-3.13468,-12.4089,3.95798,-0.260169,-1.05532
2772.0,-3.03424,-12.0044,3.95552,-0.263578,-1.06881
2776.0,-3.10362,-12.2833,3.95857,-0.266981,-1.08228
2780.0,-3.09064,-12.2317,3.95824,-0.270424,-1.0959
2784.0,-3.06481,-12.1283,3.95483,-0.27384,-1.10942
2788.0,-3.10316,-12.2833,3.95643,-0.277261,-1.12296
2792.0,-3.10288,-12.2833,3.95975,-0.280709,-1.13661
2796.0,-3.65811,-14.5259,3.96895,-0.284412,-1.15129
2800.0,-4.01992,-15.9981,3.97992,-0.288578,-1.16784
2804.0,-4.19674,-16.7265,3.98382,-0.293144,-1.18603
2808.0,-4.18846,-16.7033,3.98723,-0.297796,-1.20458
2812.0,-4.09852,-16.3462,3.98708,-0.302391,-1.22291
2816.0,-3.99105,-15.916,3.98814,-0.306872,-1.24077
2820.0,-3.918,-15.6244,3.98833,-0.311261,-1.25828
2824.0,-3.84453,-15.33,3.98865,-0.315559,-1.27542
2828.0,-3.77636,-15.0566,3.98832,-0.319794,-1.2923
2832.0,-3.63048,-14.467,3.98477,-0.323894,-1.30865
2836.0,-3.05873,-12.152,3.97197,-0.327577,-1.3233
2840.0,-2.90001,-11.5082,3.96876,-0.3308,-1.33609
2844.0,-2.8832,-11.438,3.96718,-0.334013,-1.34884
2848.0,-3.0924,-12.2809,3.97196,-0.337329,-1.362
2852.0,-3.09291,-12.2833,3.97228,-0.340764,-1.37564
2856.0,-3.09157,-12.2785,3.9717,-0.3442,-1.38929
2860.0,-3.04265,-12.0815,3.9699,-0.347607,-1.40282
2864.0,-2.96529,-11.7695,3.97043,-0.350935,-1.41603
2868.0,-2.93922,-11.6644,3.96891,-0.354212,-1.42904
2872.0,-3.03666,-12.0586,3.97142,-0.357617,-1.44256
2876.0,-2.90535,-11.5294,3.96921,-0.360909,-1.45563
2880.0,-2.83398,-11.2415,3.96825,-0.364085,-1.46822
2884.0,-2.78385,-11.0393,3.96523,-0.367193,-1.48055
2888.0,-3.45545,-13.7556,3.9809,-0.370829,-1.49501
2892.0,-3.62018,-14.4301,3.9861,-0.374817,-1.5109
2896.0,-3.5437,-14.1256,3.98635,-0.378787,-1.52673
2900.0,-3.44176,-13.7165,3.98708,-0.382661,-1.54217
2904.0,-3.19848,-12.7331,3.97948,-0.386335,-1.5568
2908.0,-2.81063,-11.165,3.97269,-0.389628,-1.5699
2912.0,-2.24482,-8.88488,3.95799,-0.392379,-1.5808
2916.0,-1.63118,-6.42618,3.94024,-0.394438,-1.58893
2920.0,-0.486847,-1.89933,3.90236,-0.395533,-1.59322
2924.0,-0.000108675,-0.00042176,3.87971,-0.395935,-1.59479
2928.0,-0.402698,-1.56668,3.89113,-0.396404,-1.59662
2932.0,-0.487918,-1.89808,3.88855,-0.396854,-1.59837
2936.0,-0.666853,-2.5965,3.8946,-0.397544,-1.60105
2940.0,-1.22046,-4.77121,3.9108,-0.398756,-1.60579
2944.0,-1.18449,-4.62881,3.90905,-0.400083,-1.61097
2948.0,-1.78148,-6.99208,3.92464,-0.401977,-1.6184
2952.0,-1.72449,-6.76695,3.9229,-0.403916,-1.62601
2956.0,-1.64068,-6.43498,3.92099,-0.405786,-1.63335
2960.0,-1.4876,-5.8283,3.91778,-0.407502,-1.64007
2964.0,-1.41314,-5.53324,3.91801,-0.409101,-1.64633
2968.0,-1.3551,-5.30329,3.91463,-0.41063,-1.65232
2972.0,-1.98108,-7.78664,3.93086,-0.412472,-1.65955
2976.0,-2.3684,-9.33517,3.93985,-0.414887,-1.66905
2980.0,-2.29132,-9.03101,3.94182,-0.417466,-1.67922
2984.0,-2.16102,-8.51308,3.93832,-0.419922,-1.6889
2988.0,-2.04124,-8.03664,3.93585,-0.42225,-1.69806
2992.0,-1.89598,-7.45829,3.93442,-0.424412,-1.70657
2996.0,-1.70745,-6.70808,3.92772,-0.426388,-1.71434
3000.0,-1.50739,-5.91318,3.92368,-0.428138,-1.72121
3004.0,-1.32754,-5.19998,3.91424,-0.429688,-1.72728
3008.0,-1.78527,-7.01509,3.92895,-0.431539,-1.73455
3012.0,-1.69199,-6.64477,3.92817,-0.433464,-1.74211
3016.0,-1.61052,-6.32125,3.92546,-0.435281,-1.74925
3020.0,-1.57493,-6.17987,3.92352,-0.437046,-1.75617
3024.0,-1.74788,-6.86722,3.9282,-0.439019,-1.76392
3028.0,-1.66524,-6.53919,3.92702,-0.440907,-1.77134
3032.0,-1.51537,-5.94432,3.92423,-0.442658,-1.77821
3036.0,-4.24503e-05,-0.000164525,3.87425,-0.443806,-1.78271
3040.0,2.40444e-61,9.31042e-61,3.8723,-0.443806,-1.78271
3044.0,-3.1544e-64,-1.22057e-63,3.86973,-0.443806,-1.78271
3048.0,0.578077,2.22496,3.84732,-0.443645,-1.78209
3052.0,1.70253,6.49042,3.81306,-0.442067,-1.77606
3056.0,1.70458,6.49042,3.80596,-0.440169,-1.76883
3060.0,7.74025e-05,0.000298262,3.855,-0.438748,-1.76343
3064.0,8.21885e-52,3.1672e-51,3.85138,-0.438748,-1.76343
3068.0,1.05688e-55,4.07258e-55,3.85192,-0.438748,-1.76343
3072.0,1.05805e-55,4.07674e-55,3.85381,-0.438748,-1.76343
3076.0,2.13305e-56,8.21792e-56,3.85248,-0.438748,-1.76343
3080.0,-1.81256e-55,-6.9824e-55,3.85061,-0.438748,-1.76343
3084.0,-1.32432e-55,-5.10099e-55,3.8521,-0.438748,-1.76343
3088.0,-2.43084e-55,-9.36198e-55,3.85034,-0.438748,-1.76343
3092.0,-4.30831e-55,-1.65909e-54,3.85044,-0.438748,-1.76343
3096.0,-8.43908e-56,-3.24945e-55,3.84869,-0.438748,-1.76343
3100.0,9.35955e-56,3.60348e-55,3.85097,-0.438748,-1.76343
3104.0,1.23877e-55,4.76885e-55,3.85044,-0.438748,-1.76343
3108.0,1.19426e-55,4.59701e-55,3.84935,-0.438748,-1.76343
3112.0,4.9809e-56,1.91709e-55,3.84841,-0.438748,-1.76343
3116.0,-0.000765559,-0.00294629,3.84663,-0.438748,-1.76343
3120.0,-8.05873e-05,-0.000310127,3.84788,-0.438823,-1.76372
3124.0,-0.291311,-1.12371,3.85697,-0.439147,-1.76497
3128.0,-0.491022,-1.89718,3.86512,-0.439526,-1.76643
3132.0,-0.000360188,-0.00138635,3.84904,-0.439786,-1.76743
3136.0,-7.75987e-44,-2.98644e-43,3.84713,-0.439901,-1.76788
3140.0,-0.298221,-1.15041,3.86028,-0.44015,-1.76884
3144.0,-0.490634,-1.89561,3.8646,-0.440534,-1.77032
3148.0,-0.464988,-1.79639,3.86185,-0.441069,-1.77239
3152.0,-0.440056,-1.69987,3.86262,-0.441568,-1.77431
3156.0,-0.86965,-3.37142,3.87844,-0.442534,-1.77806
3160.0,-1.41618,-5.51523,3.89564,-0.444126,-1.78426
3164.0,-1.35014,-5.25816,3.89207,-0.445654,-1.79021
3168.0,-1.24469,-4.84551,3.89447,-0.447087,-1.79579
3172.0,-1.18867,-4.62671,3.89131,-0.448425,-1.801
3176.0,-1.15363,-4.49009,3.89144,-0.449721,-1.80604
3180.0,-1.44015,-5.61854,3.9008,-0.451267,-1.81207
3184.0,-1.4397,-5.61854,3.90285,-0.452867,-1.81831
3188.0,-1.80991,-7.08336,3.91347,-0.454569,-1.82496
3192.0,-1.76138,-6.89443,3.91557,-0.456554,-1.83273
3196.0,-2.16047,-8.4834,3.92784,-0.458915,-1.842
3200.0,-2.06367,-8.10258,3.9261,-0.461254,-1.85118
3204.0,-1.94632,-7.63903,3.92369,-0.463473,-1.85989
3208.0,-1.84627,-7.24355,3.92476,-0.465555,-1.86806
3212.0,-1.80698,-7.08903,3.92439,-0.467561,-1.87593
3216.0,-1.75708,-6.89226,3.92203,-0.469533,-1.88367
3220.0,-1.6777,-6.57824,3.92044,-0.47143,-1.89111
3224.0,-1.57843,-6.18532,3.92013,-0.473233,-1.89817
3228.0,-1.41958,-5.55667,3.91319,-0.474877,-1.90461
3232.0,-1.20605,-4.71309,3.90762,-0.476306,-1.9102
3236.0,-0.909737,-3.54653,3.8988,-0.477474,-1.91476
3240.0,-0.530207,-2.06006,3.88753,-0.478249,-1.91777
3244.0,-0.289923,-1.12371,3.87709,-0.478604,-1.91915
3248.0,-0.290049,-1.12371,3.87537,-0.478926,-1.9204
3252.0,-0.293256,-1.13575,3.87346,-0.47925,-1.92165
3256.0,-0.469578,-1.82084,3.87634,-0.479786,-1.92373
3260.0,-0.443985,-1.72093,3.87714,-0.48029,-1.92569
3264.0,-0.40897,-1.58448,3.87292,-0.480763,-1.92752
3268.0,-0.000165712,-0.000639777,3.86029,-0.481077,-1.92873
3272.0,-1.15866e-49,-4.47161e-49,3.86051,-0.481077,-1.92873
3276.0,-8.83757e-05,-0.000340959,3.85724,-0.481077,-1.92873
3280.0,-0.490033,-1.89781,3.87288,-0.481455,-1.9302
3284.0,-0.445573,-1.7249,3.87129,-0.481836,-1.93167
3288.0,6.34433e-48,2.4467e-47,3.85629,-0.481836,-1.93167
3292.0,8.13722e-50,3.13737e-49,3.85559,-0.481836,-1.93167
3296.0,-1.78036e-49,-6.8629e-49,3.85605,-0.481836,-1.93167
3300.0,-0.000109902,-0.000423592,3.85382,-0.481917,-1.93199
3304.0,3.74196e-47,1.44199e-46,3.85253,-0.481917,-1.93199
3308.0,5.9103e-48,2.27722e-47,3.8528,-0.481917,-1.93199
3312.0,-1.04308e-49,-4.01841e-49,3.85118,-0.481917,-1.93199
3316.0,1.59097e-05,6.1283e-05,3.85182,-0.481917,-1.93199
3320.0,0.817439,3.12719,3.82641,-0.481213,-1.92929
3324.0,1.33666,5.09052,3.80919,-0.479957,-1.9245
3328.0,-6.22432e-47,-2.39377e-46,3.84478,-0.479178,-1.92154
3332.0,1.22365e-51,4.70656e-51,3.84566,-0.479178,-1.92154
3336.0,5.99698e-52,2.30677e-51,3.8471,-0.479178,-1.92154
3340.0,-0.000112336,-0.000432119,3.8463,-0.479178,-1.92154
3344.0,-2.65509e-05,-0.000102134,3.8478,-0.479204,-1.92163
3348.0,-7.18844e-29,-2.76524e-28,3.84588,-0.479254,-1.92183
3352.0,9.8549e-31,3.79089e-30,3.84849,-0.479254,-1.92183
3356.0,-2.69319e-32,-1.03596e-31,3.84736,-0.479254,-1.92183
3360.0,-3.80072e-32,-1.46195e-31,3.84721,-0.479254,-1.92183
3364.0,-2.52725e-31,-9.7208e-31,3.84678,-0.479254,-1.92183
3368.0,-0.291361,-1.12327,3.8571,-0.479335,-1.92214
3372.0,-0.67119,-2.59596,3.86885,-0.479925,-1.92442
3376.0,-0.651714,-2.52104,3.86735,-0.480665,-1.92728
3380.0,2.68443e-53,1.0331e-52,3.84931,-0.480841,-1.92796
3384.0,-1.40661e-54,-5.41254e-54,3.84758,-0.480841,-1.92796
3388.0,5.65671e-55,2.17642e-54,3.84776,-0.480841,-1.92796
3392.0,1.24385e-40,4.78548e-40,3.84928,-0.480913,-1.92824
3396.0,-3.86842e-40,-1.48817e-39,3.84598,-0.480913,-1.92824
3400.0,-0.0902034,-0.347235,3.84903,-0.480938,-1.92834
3404.0,-0.658572,-2.54688,3.86692,-0.481413,-1.93017
3408.0,-0.607878,-2.35058,3.86669,-0.48211,-1.93287
3412.0,-0.670281,-2.59367,3.86902,-0.482784,-1.93547
3416.0,-0.6704,-2.59469,3.87057,-0.483529,-1.93836
3420.0,-0.670672,-2.59596,3.87067,-0.48408,-1.94049
3424.0,-1.0481,-4.06957,3.88328,-0.485035,-1.94419
3428.0,-1.5433,-6.01762,3.89942,-0.486794,-1.95105
3432.0,-1.39164,-5.42338,3.89591,-0.488412,-1.95736
3436.0,-1.09413e-60,-4.21862e-60,3.85558,-0.489143,-1.96021
3440.0,-4.6689e-66,-1.79939e-65,3.85342,-0.489143,-1.96021
3444.0,-5.53923e-65,-2.13412e-64,3.8532,-0.489143,-1.96021
3448.0,4.48932e-65,1.72916e-64,3.85232,-0.489143,-1.96021
3452.0,1.17789e-64,4.53595e-64,3.85181,-0.489143,-1.96021
3456.0,0.000380043,0.00146282,3.84815,-0.488669,-1.9584
3460.0,0.000142676,0.000549127,3.84913,-0.488669,-1.9584
3464.0,-3.13277e-51,-1.20539e-50,3.84683,-0.488324,-1.95709
3468.0,0.976609,3.72805,3.81827,-0.48779,-1.95505
3472.0,1.08953,4.15303,3.81223,-0.486627,-1.95062
3476.0,1.1807,4.49495,3.81053,-0.48535,-1.94575
3480.0,1.27264,4.83911,3.80305,-0.483973,-1.94051
3484.0,1.38975,5.27719,3.79853,-0.482482,-1.93485
3488.0,1.39161,5.28262,3.79523,-0.481299,-1.93036
3492.0,1.39862,5.3074,3.79581,-0.480134,-1.92594
3496.0,1.4029,5.32322,3.79428,-0.479353,-1.92298
3500.0,1.06055e-61,4.06791e-61,3.83713,-0.479353,-1.92297
3504.0,-3.94834e-63,-1.51485e-62,3.8373,-0.479353,-1.92297
3508.0,-6.02723e-63,-2.31289e-62,3.83872,-0.479353,-1.92297
3512.0,-3.61455e-63,-1.38725e-62,3.8383,-0.479353,-1.92297
3516.0,0.944347,3.5976,3.80968,-0.478842,-1.92103
3520.0,6.7128e-05,0.000257499,3.83697,-0.477975,-1.91773
3524.0,4.04215e-61,1.55089e-60,3.8365,-0.477975,-1.91773
3528.0,-6.24137e-65,-2.39505e-64,3.83743,-0.477975,-1.91773
3532.0,2.78061e-65,1.06715e-64,3.83797,-0.477975,-1.91773
3536.0,4.55025e-64,1.74646e-63,3.83848,-0.477975,-1.91773
3540.0,0.981315,3.73731,3.80794,-0.47744,-1.91569
3544.0,1.11267,4.23186,3.80186,-0.476546,-1.91229
3548.0,1.26385,4.79898,3.79623,-0.475198,-1.90717
3552.0,-1.2343e-63,-4.7321e-63,3.83526,-0.474838,-1.9058
3556.0,1.22078e-67,4.68143e-67,3.83485,-0.474838,-1.9058
3560.0,5.65869e-69,2.17037e-68,3.83626,-0.474838,-1.9058
3564.0,-6.29181e-68,-2.41353e-67,3.83665,-0.474838,-1.9058
3568.0,-1.09438e-67,-4.19847e-67,3.83648,-0.474838,-1.9058
3572.0,0.000220763,0.000846879,3.83421,-0.474612,-1.90494
3576.0,0.948548,3.61117,3.8091,-0.473851,-1.90204
3580.0,1.19191,4.52731,3.79925,-0.472645,-1.89746
3584.0,1.5137,5.73314,3.78671,-0.471104,-1.89161
3588.0,2.17396,8.19159,3.77008,-0.468977,-1.88358
3592.0,2.92348,10.9546,3.7461,-0.46605,-1.87259
3596.0,3.75294,13.9797,3.72445,-0.46218,-1.85815
3598.0,3.75633,13.9818,3.72135,-0.460093,-1.85038