File: output/use_case_1_0.5E.csv
Time [s],Current [A],Power [W],Voltage [V],Capacity [Ah],Energy [Wh]
0.0,2.12495,8.75,4.11734,0.0,0.0
0.793036,2.12592,8.75,4.11651,0.000468236,0.00192752
6.11476,2.13143,8.75,4.10476,0.00361582,0.0148623
13.1148,2.13672,8.75,4.09495,0.00776641,0.0318762
20.1148,2.14076,8.75,4.08783,0.0119258,0.04889
27.1148,2.14405,8.75,4.07966,0.0160921,0.0659039
34.1148,2.14685,8.75,4.07703,0.0202643,0.0829178
41.1148,2.14928,8.75,4.07037,0.0244415,0.0999317
48.1148,2.15143,8.75,4.06645,0.028623,0.116946
55.1148,2.15337,8.75,4.06327,0.0328086,0.133959
62.1148,2.15512,8.75,4.06117,0.0369976,0.150973
69.1148,2.15672,8.75,4.05718,0.04119,0.167987
76.1148,2.1582,8.75,4.05449,0.0453852,0.185001
83.1148,2.15956,8.75,4.05193,0.0495833,0.202015
90.1148,2.16082,8.75,4.04876,0.0537838,0.219029
97.1148,2.16201,8.75,4.04892,0.0579867,0.236043
104.115,2.16311,8.75,4.04556,0.0621919,0.253057
111.115,2.16414,8.75,4.04258,0.0663991,0.270071
118.115,2.16512,8.75,4.04199,0.0706082,0.287084
125.115,2.16603,8.75,4.04063,0.0748192,0.304098
132.115,2.1669,8.75,4.03631,0.0790319,0.321112
139.115,2.16771,8.75,4.03605,0.0832462,0.338126
146.115,2.16849,8.75,4.03482,0.0874621,0.35514
153.115,2.16922,8.75,4.0347,0.0916794,0.372154
160.115,2.16991,8.75,4.03164,0.0958981,0.389168
167.115,2.17056,8.75,4.03008,0.100118,0.406182
174.115,2.17118,8.75,4.02978,0.104339,0.423196
181.115,2.17177,8.75,4.02813,0.108562,0.440209
188.115,2.17233,8.75,4.02686,0.112785,0.457223
195.115,2.17285,8.75,4.026,0.11701,0.474237
202.115,2.17335,8.75,4.0267,0.121235,0.491251
209.115,2.17383,8.75,4.02469,0.125462,0.508265
216.115,2.17428,8.75,4.02425,0.129689,0.525279
223.115,2.1747,8.75,4.02491,0.133917,0.542293
230.115,2.17511,8.75,4.02162,0.138147,0.559307
237.115,2.17549,8.75,4.02293,0.142376,0.576321
244.115,2.17585,8.75,4.02218,0.146607,0.593334
251.115,2.17619,8.75,4.02172,0.150838,0.610348
258.115,2.17652,8.75,4.02128,0.15507,0.627362
265.115,2.17683,8.75,4.01938,0.159302,0.644376
272.115,2.17711,8.75,4.01817,0.163535,0.66139
279.115,2.17739,8.75,4.01808,0.167769,0.678404
286.115,2.17765,8.75,4.01705,0.172003,0.695418
293.115,2.17789,8.75,4.02008,0.176238,0.712432
300.115,2.17812,8.75,4.01658,0.180473,0.729446
307.115,2.17834,8.75,4.01533,0.184708,0.746459
314.115,2.17854,8.75,4.01545,0.188944,0.763473
321.115,2.17873,8.75,4.01503,0.19318,0.780487
328.115,2.17891,8.75,4.01685,0.197417,0.797501
335.115,2.17909,8.75,4.01423,0.201654,0.814515
342.115,2.17925,8.75,4.01513,0.205891,0.831529
349.115,2.1794,8.75,4.01458,0.210129,0.848543
356.115,2.17954,8.75,4.01436,0.214367,0.865557
363.115,2.17968,8.75,4.0143,0.218605,0.882571
370.115,2.17981,8.75,4.01543,0.222843,0.899584
377.115,2.17993,8.75,4.01445,0.227082,0.916598
384.115,2.18005,8.75,4.01496,0.231321,0.933612
391.115,2.18016,8.75,4.01252,0.23556,0.950626
398.115,2.18026,8.75,4.01261,0.239799,0.96764
405.115,2.18036,8.75,4.01397,0.244039,0.984654
412.115,2.18046,8.75,4.01212,0.248278,1.00167
419.115,2.18055,8.75,4.01306,0.252518,1.01868
426.115,2.18064,8.75,4.01161,0.256758,1.0357
433.115,2.18072,8.75,4.01309,0.260999,1.05271
440.115,2.18081,8.75,4.01393,0.265239,1.06972
447.115,2.18089,8.75,4.0111,0.26948,1.08674
454.115,2.18096,8.75,4.01076,0.27372,1.10375
461.115,2.18104,8.75,4.01107,0.277961,1.12077
468.115,2.18112,8.75,4.01294,0.282202,1.13778
475.115,2.18119,8.75,4.01082,0.286443,1.15479
482.115,2.18126,8.75,4.01173,0.290685,1.17181
489.115,2.18133,8.75,4.01078,0.294926,1.18882
496.115,2.18141,8.75,4.01079,0.299168,1.20583
503.115,2.18148,8.75,4.01117,0.303409,1.22285
510.115,2.18155,8.75,4.01097,0.307651,1.23986
517.115,2.18162,8.75,4.01093,0.311893,1.25688
524.115,2.18169,8.75,4.01113,0.316135,1.27389
531.115,2.18177,8.75,4.01079,0.320377,1.2909
538.115,2.18184,8.75,4.01089,0.32462,1.30792
545.115,2.18191,8.75,4.00985,0.328862,1.32493
552.115,2.18199,8.75,4.0098,0.333105,1.34195
559.115,2.18206,8.75,4.00817,0.337348,1.35896
566.115,2.18214,8.75,4.0083,0.341591,1.37597
573.115,2.18222,8.75,4.0101,0.345834,1.39299
580.115,2.1823,8.75,4.01201,0.350077,1.41
587.115,2.18238,8.75,4.0076,0.354321,1.42702
594.115,2.18247,8.75,4.00914,0.358564,1.44403
601.115,2.18256,8.75,4.00853,0.362808,1.46104
608.115,2.18264,8.75,4.00894,0.367052,1.47806
615.115,2.18274,8.75,4.0082,0.371296,1.49507
622.115,2.18283,8.75,4.01014,0.375541,1.51208
629.115,2.18293,8.75,4.01069,0.379785,1.5291
636.115,2.18303,8.75,4.00819,0.38403,1.54611
643.115,2.18313,8.75,4.00861,0.388275,1.56313
650.115,2.18324,8.75,4.00653,0.39252,1.58014
657.115,2.18335,8.75,4.00728,0.396765,1.59715
664.115,2.18346,8.75,4.00674,0.401011,1.61417
671.115,2.18357,8.75,4.00817,0.405256,1.63118
678.115,2.18369,8.75,4.00675,0.409502,1.6482
685.115,2.18382,8.75,4.00743,0.413749,1.66521
692.115,2.18394,8.75,4.00668,0.417995,1.68222
699.115,2.18408,8.75,4.00571,0.422242,1.69924
706.115,2.18421,8.75,4.00563,0.426489,1.71625
713.115,2.18435,8.75,4.0064,0.430736,1.73327
720.115,2.1845,8.75,4.00715,0.434983,1.75028
727.115,2.18464,8.75,4.00641,0.439231,1.76729
734.115,2.1848,8.75,4.0056,0.443479,1.78431
741.115,2.18495,8.75,4.00365,0.447728,1.80132
748.115,2.18511,8.75,4.00281,0.451976,1.81833
755.115,2.18528,8.75,4.00521,0.456225,1.83535
762.115,2.18545,8.75,4.003,0.460475,1.85236
769.115,2.18563,8.75,4.00188,0.464724,1.86938
776.115,2.18581,8.75,4.00275,0.468974,1.88639
783.115,2.18599,8.75,4.00451,0.473225,1.9034
790.115,2.18618,8.75,4.00072,0.477476,1.92042
797.115,2.18638,8.75,4.00185,0.481727,1.93743
804.115,2.18658,8.75,4.00169,0.485978,1.95445
811.115,2.18678,8.75,4.0004,0.49023,1.97146
818.115,2.18699,8.75,4.0033,0.494482,1.98847
825.115,2.1872,8.75,3.99969,0.498735,2.00549
832.115,2.18742,8.75,4.00034,0.502988,2.0225
839.115,2.18764,8.75,4.00113,0.507242,2.03952
846.115,2.18787,8.75,4.00024,0.511496,2.05653
853.115,2.18811,8.75,3.99839,0.51575,2.07354
860.115,2.18834,8.75,3.99694,0.520005,2.09056
867.115,2.18859,8.75,3.99678,0.524261,2.10757
874.115,2.18884,8.75,3.99752,0.528516,2.12458
881.115,2.18909,8.75,3.99714,0.532773,2.1416
888.115,2.18935,8.75,3.99561,0.53703,2.15861
895.115,2.18961,8.75,3.9954,0.541287,2.17563
902.115,2.18987,8.75,3.99468,0.545545,2.19264
909.115,2.19015,8.75,3.99519,0.549803,2.20965
916.115,2.19042,8.75,3.99511,0.554062,2.22667
923.115,2.1907,8.75,3.9949,0.558322,2.24368
930.115,2.19099,8.75,3.99356,0.562582,2.2607
937.115,2.19128,8.75,3.99435,0.566842,2.27771
944.115,2.19157,8.75,3.99363,0.571103,2.29472
951.115,2.19187,8.75,3.99184,0.575365,2.31174
958.115,2.19217,8.75,3.99107,0.579627,2.32875
965.115,2.19248,8.75,3.99216,0.58389,2.34577
972.115,2.19279,8.75,3.98919,0.588154,2.36278
979.115,2.1931,8.75,3.98935,0.592418,2.37979
986.115,2.19342,8.75,3.98819,0.596683,2.39681
993.115,2.19375,8.75,3.99093,0.600948,2.41382
1000.11,2.19407,8.75,3.98664,0.605214,2.43083
1007.11,2.19441,8.75,3.98806,0.609481,2.44785
1014.11,2.19474,8.75,3.9861,0.613748,2.46486
1021.11,2.19508,8.75,3.98712,0.618016,2.48188
1028.11,2.19542,8.75,3.98716,0.622284,2.49889
1035.11,2.19577,8.75,3.98516,0.626554,2.5159
1042.11,2.19612,8.75,3.9838,0.630823,2.53292
1049.11,2.19647,8.75,3.98412,0.635094,2.54993
1056.11,2.19683,8.75,3.98311,0.639365,2.56695
1063.11,2.19719,8.75,3.98004,0.643637,2.58396
1070.11,2.19755,8.75,3.98123,0.64791,2.60097
1077.11,2.19792,8.75,3.98131,0.652184,2.61799
1084.11,2.19829,8.75,3.98134,0.656458,2.635
1091.11,2.19866,8.75,3.97852,0.660733,2.65202
1098.11,2.19904,8.75,3.9796,0.665008,2.66903
1105.11,2.19942,8.75,3.97853,0.669285,2.68604
1112.11,2.1998,8.75,3.97907,0.673562,2.70306
1119.11,2.20019,8.75,3.97583,0.677839,2.72007
1126.11,2.20058,8.75,3.97611,0.682118,2.73708
1133.11,2.20097,8.75,3.97472,0.686397,2.7541
1140.11,2.20136,8.75,3.97624,0.690677,2.77111
1147.11,2.20176,8.75,3.97584,0.694958,2.78813
1154.11,2.20216,8.75,3.97143,0.69924,2.80514
1161.11,2.20256,8.75,3.97184,0.703522,2.82215
1168.11,2.20296,8.75,3.97281,0.707806,2.83917
1175.11,2.20337,8.75,3.97138,0.71209,2.85618
1182.11,2.20378,8.75,3.97181,0.716374,2.8732
1189.11,2.20419,8.75,3.96878,0.72066,2.89021
1196.11,2.2046,8.75,3.96964,0.724946,2.90722
1203.11,2.20501,8.75,3.96726,0.729233,2.92424
1210.11,2.20543,8.75,3.96895,0.733521,2.94125
1217.11,2.20585,8.75,3.96694,0.73781,2.95827
1224.11,2.20627,8.75,3.96615,0.7421,2.97528
1231.11,2.20669,8.75,3.96613,0.74639,2.99229
1238.11,2.20711,8.75,3.96359,0.750682,3.00931
1245.11,2.20754,8.75,3.96649,0.754974,3.02632
1252.11,2.20797,8.75,3.96267,0.759267,3.04333
1259.11,2.20839,8.75,3.96119,0.76356,3.06035
1266.11,2.20883,8.75,3.96088,0.767855,3.07736
1273.11,2.20926,8.75,3.95968,0.77215,3.09438
1280.11,2.20969,8.75,3.9621,0.776447,3.11139
1287.11,2.21012,8.75,3.96005,0.780744,3.1284
1294.11,2.21056,8.75,3.95903,0.785042,3.14542
1301.11,2.211,8.75,3.95607,0.78934,3.16243
1308.11,2.21143,8.75,3.95611,0.79364,3.17945
1315.11,2.21187,8.75,3.95606,0.797941,3.19646
1322.11,2.21231,8.75,3.95555,0.802242,3.21347
1329.11,2.21275,8.75,3.95425,0.806544,3.23049
1336.11,2.21319,8.75,3.95341,0.810847,3.2475
1343.11,2.21364,8.75,3.95284,0.815151,3.26452
1350.11,2.21408,8.75,3.95223,0.819456,3.28153
1357.11,2.21452,8.75,3.95063,0.823762,3.29854
1364.11,2.21497,8.75,3.94985,0.828068,3.31556
1371.11,2.21541,8.75,3.95156,0.832375,3.33257
1378.11,2.21586,8.75,3.94889,0.836684,3.34958
1385.11,2.21631,8.75,3.94814,0.840993,3.3666
1392.11,2.21675,8.75,3.94546,0.845303,3.38361
1399.11,2.2172,8.75,3.94674,0.849614,3.40063
1406.11,2.21765,8.75,3.94568,0.853925,3.41764
1413.11,2.2181,8.75,3.94557,0.858238,3.43465
1420.11,2.21854,8.75,3.94396,0.862551,3.45167
1427.11,2.21899,8.75,3.94405,0.866866,3.46868
1434.11,2.21944,8.75,3.94191,0.871181,3.4857
1441.11,2.21989,8.75,3.9426,0.875497,3.50271
1448.11,2.22034,8.75,3.93859,0.879814,3.51972
1455.11,2.22079,8.75,3.93832,0.884132,3.53674
1462.11,2.22124,8.75,3.94009,0.88845,3.55375
1469.11,2.22169,8.75,3.9394,0.89277,3.57077
1476.11,2.22214,8.75,3.93771,0.89709,3.58778
1483.11,2.22259,8.75,3.93498,0.901412,3.60479
1490.11,2.22304,8.75,3.93679,0.905734,3.62181
1497.11,2.22349,8.75,3.93651,0.910057,3.63882
1504.11,2.22394,8.75,3.93598,0.914381,3.65583
1511.11,2.22438,8.75,3.93299,0.918706,3.67285
1518.11,2.22483,8.75,3.93319,0.923032,3.68986
1525.11,2.22528,8.75,3.93152,0.927358,3.70688
1532.11,2.22573,8.75,3.93095,0.931685,3.72389
1539.11,2.22618,8.75,3.93002,0.936014,3.7409
1546.11,2.22662,8.75,3.92881,0.940343,3.75792
1553.11,2.22707,8.75,3.92953,0.944673,3.77493
1560.11,2.22752,8.75,3.92706,0.949004,3.79195
1567.11,2.22797,8.75,3.92817,0.953336,3.80896
1574.11,2.22841,8.75,3.92824,0.957668,3.82597
1581.11,2.22886,8.75,3.92646,0.962002,3.84299
1588.11,2.2293,8.75,3.92674,0.966336,3.86
1595.11,2.22975,8.75,3.92436,0.970672,3.87702
1602.11,2.23019,8.75,3.92319,0.975008,3.89403
1609.11,2.23064,8.75,3.92503,0.979345,3.91104
1616.11,2.23108,8.75,3.92081,0.983682,3.92806
1623.11,2.23152,8.75,3.92016,0.988021,3.94507
1630.11,2.23196,8.75,3.91923,0.992361,3.96208
1637.11,2.23241,8.75,3.92031,0.996701,3.9791
1644.11,2.23285,8.75,3.91817,1.00104,3.99611
1651.11,2.23329,8.75,3.91911,1.00538,4.01313
1658.11,2.23373,8.75,3.9167,1.00973,4.03014
1665.11,2.23417,8.75,3.9158,1.01407,4.04715
1672.11,2.23461,8.75,3.91488,1.01842,4.06417
1679.11,2.23505,8.75,3.91388,1.02276,4.08118
1686.11,2.23548,8.75,3.91539,1.02711,4.0982
1693.11,2.23592,8.75,3.91349,1.03146,4.11521
1700.11,2.23636,8.75,3.91352,1.0358,4.13222
1707.11,2.23679,8.75,3.91148,1.04015,4.14924
1714.11,2.23723,8.75,3.91152,1.0445,4.16625
1721.11,2.23766,8.75,3.90947,1.04885,4.18327
1728.11,2.2381,8.75,3.90911,1.0532,4.20028
1735.11,2.23853,8.75,3.90937,1.05756,4.21729
1742.11,2.23896,8.75,3.90687,1.06191,4.23431
1749.11,2.23939,8.75,3.90802,1.06626,4.25132
1756.11,2.23983,8.75,3.90805,1.07062,4.26833
1763.11,2.24026,8.75,3.90528,1.07497,4.28535
1770.11,2.24069,8.75,3.90419,1.07933,4.30236
1777.11,2.24112,8.75,3.90443,1.08369,4.31938
1784.11,2.24155,8.75,3.90349,1.08805,4.33639
1791.11,2.24198,8.75,3.90458,1.09241,4.3534
1798.11,2.2424,8.75,3.90153,1.09677,4.37042
1805.11,2.24283,8.75,3.90045,1.10113,4.38743
1812.11,2.24326,8.75,3.90033,1.10549,4.40445
1819.11,2.24368,8.75,3.90122,1.10985,4.42146
1826.11,2.24411,8.75,3.89866,1.11421,4.43847
1833.11,2.24454,8.75,3.8981,1.11858,4.45549
1840.11,2.24496,8.75,3.89699,1.12294,4.4725
1847.11,2.24539,8.75,3.89839,1.12731,4.48952
1854.11,2.24581,8.75,3.89507,1.13167,4.50653
1861.11,2.24623,8.75,3.8961,1.13604,4.52354
1868.11,2.24666,8.75,3.89375,1.14041,4.54056
1875.11,2.24708,8.75,3.89541,1.14478,4.55757
1882.11,2.24751,8.75,3.89313,1.14915,4.57458
1889.11,2.24793,8.75,3.89202,1.15352,4.5916
1896.11,2.24835,8.75,3.89224,1.15789,4.60861
1903.11,2.24877,8.75,3.88958,1.16226,4.62563
1910.11,2.24919,8.75,3.89089,1.16664,4.64264
1917.11,2.24962,8.75,3.89059,1.17101,4.65965
1924.11,2.25004,8.75,3.89002,1.17538,4.67667
1931.11,2.25046,8.75,3.88945,1.17976,4.69368
1938.11,2.25088,8.75,3.8871,1.18414,4.7107
1945.11,2.2513,8.75,3.88654,1.18851,4.72771
1952.11,2.25172,8.75,3.8863,1.19289,4.74472
1959.11,2.25215,8.75,3.88299,1.19727,4.76174
1966.11,2.25257,8.75,3.8837,1.20165,4.77875
1973.11,2.25299,8.75,3.88374,1.20603,4.79577
1980.11,2.25341,8.75,3.88375,1.21041,4.81278
1987.11,2.25383,8.75,3.88413,1.21479,4.82979
1994.11,2.25426,8.75,3.88245,1.21918,4.84681
2001.11,2.25468,8.75,3.88064,1.22356,4.86382
2008.11,2.2551,8.75,3.87982,1.22795,4.88083
2015.11,2.25552,8.75,3.88018,1.23233,4.89785
2022.11,2.25595,8.75,3.87834,1.23672,4.91486
2029.11,2.25637,8.75,3.87819,1.2411,4.93188
2036.11,2.2568,8.75,3.87776,1.24549,4.94889
2043.11,2.25722,8.75,3.8751,1.24988,4.9659
2050.11,2.25765,8.75,3.87612,1.25427,4.98292
2057.11,2.25807,8.75,3.87395,1.25866,4.99993
2064.11,2.2585,8.75,3.87398,1.26305,5.01695
2071.11,2.25892,8.75,3.87174,1.26744,5.03396
2078.11,2.25935,8.75,3.87249,1.27184,5.05097
2085.11,2.25978,8.75,3.87352,1.27623,5.06799
2092.11,2.26021,8.75,3.87126,1.28062,5.085
2099.11,2.26063,8.75,3.87117,1.28502,5.10202
2106.11,2.26106,8.75,3.86994,1.28942,5.11903
2113.11,2.26149,8.75,3.86882,1.29381,5.13604
2120.11,2.26193,8.75,3.87086,1.29821,5.15306
2127.11,2.26236,8.75,3.86755,1.30261,5.17007
2134.11,2.26279,8.75,3.86736,1.30701,5.18708
2141.11,2.26322,8.75,3.86617,1.31141,5.2041
2148.11,2.26366,8.75,3.86513,1.31581,5.22111
2155.11,2.26409,8.75,3.8635,1.32021,5.23813
2162.11,2.26452,8.75,3.86356,1.32462,5.25514
2169.11,2.26496,8.75,3.86288,1.32902,5.27215
2176.11,2.2654,8.75,3.8605,1.33342,5.28917
2183.11,2.26583,8.75,3.86188,1.33783,5.30618
2190.11,2.26627,8.75,3.86186,1.34224,5.3232
2197.11,2.26671,8.75,3.86018,1.34664,5.34021
2204.11,2.26715,8.75,3.85898,1.35105,5.35722
2211.11,2.26759,8.75,3.85734,1.35546,5.37424
2218.11,2.26804,8.75,3.85885,1.35987,5.39125
2225.11,2.26848,8.75,3.85729,1.36428,5.40827
2232.11,2.26892,8.75,3.85716,1.36869,5.42528
2239.11,2.26937,8.75,3.85534,1.3731,5.44229
2246.11,2.26982,8.75,3.85478,1.37752,5.45931
2253.11,2.27026,8.75,3.85455,1.38193,5.47632
2260.11,2.27071,8.75,3.85239,1.38635,5.49333
2267.11,2.27116,8.75,3.85208,1.39076,5.51035
2274.11,2.27161,8.75,3.8511,1.39518,5.52736
2281.11,2.27206,8.75,3.85188,1.3996,5.54438
2288.11,2.27252,8.75,3.85094,1.40401,5.56139
2295.11,2.27297,8.75,3.8497,1.40843,5.5784
2302.11,2.27343,8.75,3.84695,1.41285,5.59542
2309.11,2.27388,8.75,3.84721,1.41727,5.61243
2316.11,2.27434,8.75,3.84653,1.4217,5.62945
2323.11,2.2748,8.75,3.84765,1.42612,5.64646
2330.11,2.27526,8.75,3.84483,1.43054,5.66347
2337.11,2.27572,8.75,3.84493,1.43497,5.68049
2344.11,2.27618,8.75,3.84435,1.43939,5.6975
2351.11,2.27665,8.75,3.84385,1.44382,5.71452
2358.11,2.27711,8.75,3.84317,1.44825,5.73153
2365.11,2.27758,8.75,3.84239,1.45267,5.74854
2372.11,2.27805,8.75,3.8425,1.4571,5.76556
2379.11,2.27852,8.75,3.83956,1.46153,5.78257
2386.11,2.27899,8.75,3.83854,1.46597,5.79958
2393.11,2.27946,8.75,3.83899,1.4704,5.8166
2400.11,2.27993,8.75,3.83775,1.47483,5.83361
2407.11,2.28041,8.75,3.83838,1.47926,5.85063
2414.11,2.28089,8.75,3.8354,1.4837,5.86764
2421.11,2.28137,8.75,3.83376,1.48813,5.88465
2428.11,2.28185,8.75,3.83348,1.49257,5.90167
2435.11,2.28233,8.75,3.83452,1.49701,5.91868
2442.11,2.28281,8.75,3.83427,1.50145,5.9357
2449.11,2.2833,8.75,3.83306,1.50589,5.95271
2456.11,2.28379,8.75,3.83276,1.51033,5.96972
2463.11,2.28427,8.75,3.82968,1.51477,5.98674
2470.11,2.28477,8.75,3.83014,1.51921,6.00375
2477.11,2.28526,8.75,3.8268,1.52365,6.02077
2484.11,2.28575,8.75,3.82815,1.5281,6.03778
2491.11,2.28625,8.75,3.82932,1.53254,6.05479
2498.11,2.28675,8.75,3.82654,1.53699,6.07181
2505.11,2.28725,8.75,3.82498,1.54143,6.08882
2512.11,2.28775,8.75,3.82527,1.54588,6.10583
2519.11,2.28826,8.75,3.82283,1.55033,6.12285
2526.11,2.28877,8.75,3.82248,1.55478,6.13986
2533.11,2.28928,8.75,3.82216,1.55923,6.15688
2540.11,2.28979,8.75,3.8203,1.56368,6.17389
2547.11,2.2903,8.75,3.82186,1.56814,6.1909
2554.11,2.29082,8.75,3.82134,1.57259,6.20792
2561.11,2.29134,8.75,3.81846,1.57705,6.22493
2568.11,2.29186,8.75,3.81767,1.5815,6.24195
2575.11,2.29238,8.75,3.81589,1.58596,6.25896
2582.11,2.29291,8.75,3.81698,1.59042,6.27597
2589.11,2.29344,8.75,3.81664,1.59488,6.29299
2596.11,2.29397,8.75,3.81508,1.59934,6.31
2603.11,2.2945,8.75,3.81295,1.6038,6.32702
2610.11,2.29504,8.75,3.8126,1.60826,6.34403
2617.11,2.29558,8.75,3.81289,1.61272,6.36104
2624.11,2.29612,8.75,3.81024,1.61719,6.37806
2631.11,2.29667,8.75,3.8083,1.62165,6.39507
2638.11,2.29722,8.75,3.80776,1.62612,6.41208
2645.11,2.29777,8.75,3.80874,1.63059,6.4291
2652.11,2.29833,8.75,3.8082,1.63505,6.44611
2659.11,2.29888,8.75,3.80601,1.63952,6.46313
2666.11,2.29944,8.75,3.80346,1.64399,6.48014
2673.11,2.30001,8.75,3.80514,1.64847,6.49715
2680.11,2.30057,8.75,3.80222,1.65294,6.51417
2687.11,2.30114,8.75,3.80201,1.65741,6.53118
2694.11,2.30172,8.75,3.80131,1.66189,6.5482
2701.11,2.30229,8.75,3.80121,1.66636,6.56521
2708.11,2.30287,8.75,3.79933,1.67084,6.58222
2715.11,2.30345,8.75,3.79871,1.67532,6.59924
2722.11,2.30404,8.75,3.79843,1.6798,6.61625
2729.11,2.30463,8.75,3.79673,1.68428,6.63327
2736.11,2.30522,8.75,3.79622,1.68876,6.65028
2743.11,2.30581,8.75,3.7956,1.69325,6.66729
2750.11,2.30641,8.75,3.79202,1.69773,6.68431
2757.11,2.30701,8.75,3.7929,1.70222,6.70132
2764.11,2.30762,8.75,3.79122,1.7067,6.71833
2771.11,2.30822,8.75,3.79053,1.71119,6.73535
2778.11,2.30883,8.75,3.78894,1.71568,6.75236
2785.11,2.30944,8.75,3.78885,1.72017,6.76938
2792.11,2.31005,8.75,3.7866,1.72466,6.78639
2799.11,2.31067,8.75,3.78623,1.72915,6.8034
2806.11,2.31129,8.75,3.78563,1.73365,6.82042
2813.11,2.31191,8.75,3.78462,1.73814,6.83743
2820.11,2.31253,8.75,3.78502,1.74264,6.85445
2827.11,2.31315,8.75,3.78432,1.74713,6.87146
2834.11,2.31377,8.75,3.78004,1.75163,6.88847
2841.11,2.3144,8.75,3.78058,1.75613,6.90549
2848.11,2.31503,8.75,3.78035,1.76063,6.9225
2855.11,2.31565,8.75,3.77755,1.76514,6.93952
2862.11,2.31628,8.75,3.77951,1.76964,6.95653
2869.11,2.31691,8.75,3.77711,1.77414,6.97354
2876.11,2.31754,8.75,3.77662,1.77865,6.99056
2883.11,2.31817,8.75,3.77328,1.78316,7.00757
2890.11,2.3188,8.75,3.77366,1.78766,7.02458
2897.11,2.31943,8.75,3.77142,1.79217,7.0416
2904.11,2.32006,8.75,3.77207,1.79668,7.05861
2911.11,2.32069,8.75,3.77001,1.8012,7.07563
2918.11,2.32132,8.75,3.76858,1.80571,7.09264
2925.11,2.32195,8.75,3.76863,1.81022,7.10965
2932.11,2.32257,8.75,3.76847,1.81474,7.12667
2939.11,2.3232,8.75,3.76711,1.81926,7.14368
2946.11,2.32382,8.75,3.7634,1.82377,7.1607
2953.11,2.32445,8.75,3.76255,1.82829,7.17771
2960.11,2.32507,8.75,3.76239,1.83281,7.19472
2967.11,2.32569,8.75,3.76136,1.83734,7.21174
2974.11,2.32631,8.75,3.76089,1.84186,7.22875
2981.11,2.32692,8.75,3.76085,1.84638,7.24577
2988.11,2.32754,8.75,3.7606,1.85091,7.26278
2995.11,2.32815,8.75,3.7573,1.85543,7.27979
3002.11,2.32876,8.75,3.75839,1.85996,7.29681
3009.11,2.32937,8.75,3.75732,1.86449,7.31382
3016.11,2.32998,8.75,3.75489,1.86902,7.33083
3023.11,2.33058,8.75,3.75543,1.87355,7.34785
3030.11,2.33119,8.75,3.75423,1.87808,7.36486
3037.11,2.33179,8.75,3.75155,1.88262,7.38188
3044.11,2.33239,8.75,3.75052,1.88715,7.39889
3051.11,2.33298,8.75,3.75169,1.89169,7.4159
3058.11,2.33358,8.75,3.75049,1.89623,7.43292
3065.11,2.33417,8.75,3.74782,1.90076,7.44993
3072.11,2.33476,8.75,3.74835,1.9053,7.46695
3079.11,2.33536,8.75,3.7476,1.90984,7.48396
3086.11,2.33594,8.75,3.74493,1.91438,7.50097
3093.11,2.33653,8.75,3.7452,1.91893,7.51799
3100.11,2.33711,8.75,3.74283,1.92347,7.535
3107.11,2.3377,8.75,3.74329,1.92802,7.55202
3114.11,2.33828,8.75,3.74114,1.93256,7.56903
3121.11,2.33886,8.75,3.74313,1.93711,7.58604
3128.11,2.33944,8.75,3.74017,1.94166,7.60306
3135.11,2.34002,8.75,3.73991,1.94621,7.62007
3142.11,2.34059,8.75,3.73771,1.95076,7.63708
3149.11,2.34117,8.75,3.737,1.95531,7.6541
3156.11,2.34174,8.75,3.73705,1.95986,7.67111
3163.11,2.34231,8.75,3.73674,1.96442,7.68813
3170.11,2.34289,8.75,3.73519,1.96897,7.70514
3177.11,2.34346,8.75,3.7339,1.97353,7.72215
3184.11,2.34403,8.75,3.7333,1.97809,7.73917
3191.11,2.3446,8.75,3.73085,1.98264,7.75618
3198.11,2.34517,8.75,3.73246,1.9872,7.7732
3205.11,2.34574,8.75,3.73119,1.99176,7.79021
3212.11,2.3463,8.75,3.72837,1.99633,7.80722
3219.11,2.34687,8.75,3.72804,2.00089,7.82424
3226.11,2.34744,8.75,3.72843,2.00545,7.84125
3233.11,2.34801,8.75,3.7261,2.01002,7.85827
3240.11,2.34858,8.75,3.72531,2.01458,7.87528
3247.11,2.34914,8.75,3.72581,2.01915,7.89229
3254.11,2.34971,8.75,3.72289,2.02372,7.90931
3261.11,2.35028,8.75,3.72384,2.02829,7.92632
3268.11,2.35084,8.75,3.72388,2.03286,7.94333
3275.11,2.35141,8.75,3.72142,2.03743,7.96035
3282.11,2.35198,8.75,3.72096,2.04201,7.97736
3289.11,2.35254,8.75,3.71888,2.04658,7.99438
3296.11,2.35311,8.75,3.71923,2.05115,8.01139
3303.11,2.35368,8.75,3.71772,2.05573,8.0284
3310.11,2.35425,8.75,3.71635,2.06031,8.04542
3317.11,2.35482,8.75,3.71502,2.06489,8.06243
3324.11,2.35539,8.75,3.71527,2.06947,8.07945
3331.11,2.35595,8.75,3.71316,2.07405,8.09646
3338.11,2.35652,8.75,3.71243,2.07863,8.11347
3345.11,2.3571,8.75,3.7135,2.08321,8.13049
3352.11,2.35767,8.75,3.71091,2.08779,8.1475
3359.11,2.35824,8.75,3.70969,2.09238,8.16452
3366.11,2.35881,8.75,3.70943,2.09697,8.18153
3373.11,2.35938,8.75,3.70808,2.10155,8.19854
3380.11,2.35995,8.75,3.70786,2.10614,8.21556
3387.11,2.36053,8.75,3.70806,2.11073,8.23257
3394.11,2.3611,8.75,3.70565,2.11532,8.24958
3401.11,2.36168,8.75,3.70289,2.11991,8.2666
3408.11,2.36225,8.75,3.70411,2.12451,8.28361
3415.11,2.36283,8.75,3.70174,2.1291,8.30063
3422.11,2.3634,8.75,3.70188,2.13369,8.31764
3429.11,2.36398,8.75,3.70069,2.13829,8.33465
3436.11,2.36456,8.75,3.69896,2.14289,8.35167
3443.11,2.36514,8.75,3.70109,2.14749,8.36868
3450.11,2.36572,8.75,3.69846,2.15209,8.3857
3457.11,2.3663,8.75,3.69686,2.15669,8.40271
3464.11,2.36687,8.75,3.69795,2.16129,8.41972
3471.11,2.36746,8.75,3.69611,2.16589,8.43674
3478.11,2.36804,8.75,3.69551,2.17049,8.45375
3485.11,2.36862,8.75,3.69494,2.1751,8.47077
3492.11,2.3692,8.75,3.69168,2.17971,8.48778
3499.11,2.36978,8.75,3.69252,2.18431,8.50479
3506.11,2.37037,8.75,3.69084,2.18892,8.52181
3513.11,2.37095,8.75,3.68927,2.19353,8.53882
3520.11,2.37153,8.75,3.69079,2.19814,8.55583
3527.11,2.37212,8.75,3.68914,2.20275,8.57285
3534.11,2.3727,8.75,3.68851,2.20737,8.58986
3541.11,2.37329,8.75,3.68614,2.21198,8.60688
3548.11,2.37387,8.75,3.68743,2.2166,8.62389
3555.11,2.37446,8.75,3.68541,2.22121,8.6409
3562.11,2.37504,8.75,3.68548,2.22583,8.65792
3569.11,2.37563,8.75,3.68297,2.23045,8.67493
3576.11,2.37621,8.75,3.68113,2.23507,8.69195
3583.11,2.3768,8.75,3.68303,2.23969,8.70896
3590.11,2.37738,8.75,3.68226,2.24431,8.72597
3597.11,2.37797,8.75,3.67948,2.24894,8.74299
3604.11,2.37855,8.75,3.67946,2.25356,8.76
3611.11,2.37914,8.75,3.67634,2.25819,8.77702
3618.11,2.37973,8.75,3.67877,2.26281,8.79403
3625.11,2.38031,8.75,3.67711,2.26744,8.81104
3632.11,2.3809,8.75,3.67536,2.27207,8.82806
3639.11,2.38148,8.75,3.67324,2.2767,8.84507
3646.11,2.38207,8.75,3.67244,2.28133,8.86208
3653.11,2.38265,8.75,3.67326,2.28596,8.8791
3660.11,2.38324,8.75,3.67179,2.2906,8.89611
3667.11,2.38382,8.75,3.6686,2.29523,8.91313
3674.11,2.3844,8.75,3.67008,2.29987,8.93014
3681.11,2.38499,8.75,3.66933,2.30451,8.94715
3688.11,2.38557,8.75,3.66793,2.30914,8.96417
3695.11,2.38615,8.75,3.66898,2.31378,8.98118
3702.11,2.38673,8.75,3.66645,2.31842,8.9982
3709.11,2.38731,8.75,3.66471,2.32307,9.01521
3716.11,2.38789,8.75,3.66406,2.32771,9.03222
3723.11,2.38847,8.75,3.6659,2.33235,9.04924
3730.11,2.38905,8.75,3.66327,2.337,9.06625
3737.11,2.38963,8.75,3.66143,2.34164,9.08327
3744.11,2.3902,8.75,3.66044,2.34629,9.10028
3751.11,2.39078,8.75,3.65997,2.35094,9.11729
3758.11,2.39135,8.75,3.65898,2.35559,9.13431
3765.11,2.39193,8.75,3.65877,2.36024,9.15132
3772.11,2.3925,8.75,3.65705,2.36489,9.16833
3779.11,2.39307,8.75,3.65685,2.36954,9.18535
3786.11,2.39364,8.75,3.65517,2.3742,9.20236
3793.11,2.39421,8.75,3.6544,2.37885,9.21938
3800.11,2.39478,8.75,3.65384,2.38351,9.23639
3807.11,2.39535,8.75,3.65167,2.38816,9.2534
3814.11,2.39591,8.75,3.65049,2.39282,9.27042
3821.11,2.39648,8.75,3.65065,2.39748,9.28743
3828.11,2.39704,8.75,3.65006,2.40214,9.30445
3835.11,2.3976,8.75,3.65128,2.4068,9.32146
3842.11,2.39816,8.75,3.64781,2.41147,9.33847
3849.11,2.39872,8.75,3.64742,2.41613,9.35549
3856.11,2.39928,8.75,3.64689,2.42079,9.3725
3863.11,2.39984,8.75,3.64532,2.42546,9.38952
3870.11,2.40039,8.75,3.6458,2.43013,9.40653
3877.11,2.40094,8.75,3.64443,2.4348,9.42354
3884.11,2.4015,8.75,3.64286,2.43946,9.44056
3891.11,2.40205,8.75,3.64238,2.44413,9.45757
3898.11,2.4026,8.75,3.64052,2.44881,9.47458
3905.11,2.40314,8.75,3.63994,2.45348,9.4916
3912.11,2.40369,8.75,3.63839,2.45815,9.50861
3919.11,2.40423,8.75,3.64089,2.46283,9.52563
3926.11,2.40478,8.75,3.63903,2.4675,9.54264
3933.11,2.40532,8.75,3.6362,2.47218,9.55965
3940.11,2.40586,8.75,3.63733,2.47686,9.57667
3947.11,2.4064,8.75,3.63622,2.48153,9.59368
3954.11,2.40693,8.75,3.63392,2.48621,9.6107
3961.11,2.40747,8.75,3.63363,2.49089,9.62771
3968.11,2.408,8.75,3.63351,2.49558,9.64472
3975.11,2.40853,8.75,3.63258,2.50026,9.66174
3982.11,2.40906,8.75,3.63222,2.50494,9.67875
3989.11,2.40959,8.75,3.6312,2.50963,9.69577
3996.11,2.41011,8.75,3.62947,2.51431,9.71278
4003.11,2.41064,8.75,3.62987,2.519,9.72979
4010.11,2.41116,8.75,3.6286,2.52369,9.74681
4017.11,2.41168,8.75,3.62825,2.52838,9.76382
4024.11,2.4122,8.75,3.62836,2.53307,9.78083
4031.11,2.41272,8.75,3.62731,2.53776,9.79785
4038.11,2.41323,8.75,3.62483,2.54245,9.81486
4045.11,2.41375,8.75,3.62548,2.54714,9.83188
4052.11,2.41426,8.75,3.62347,2.55184,9.84889
4059.11,2.41477,8.75,3.62427,2.55653,9.8659
4066.11,2.41528,8.75,3.62207,2.56123,9.88292
4073.11,2.41579,8.75,3.62235,2.56593,9.89993
4080.11,2.41629,8.75,3.62293,2.57062,9.91695
4087.11,2.4168,8.75,3.62112,2.57532,9.93396
4094.11,2.4173,8.75,3.6212,2.58002,9.95097
4101.11,2.4178,8.75,3.62071,2.58472,9.96799
4108.11,2.4183,8.75,3.61858,2.58943,9.985
4115.11,2.4188,8.75,3.61929,2.59413,10.002
4122.11,2.41929,8.75,3.61679,2.59883,10.019
4129.11,2.41979,8.75,3.61767,2.60354,10.036
4136.11,2.42028,8.75,3.61729,2.60824,10.0531
4143.11,2.42077,8.75,3.61474,2.61295,10.0701
4150.11,2.42126,8.75,3.61434,2.61766,10.0871
4157.11,2.42175,8.75,3.61293,2.62236,10.1041
4164.11,2.42223,8.75,3.61351,2.62707,10.1211
4171.11,2.42272,8.75,3.61221,2.63178,10.1381
4178.11,2.4232,8.75,3.61115,2.6365,10.1551
4185.11,2.42369,8.75,3.61191,2.64121,10.1722
4192.11,2.42417,8.75,3.60957,2.64592,10.1892
4199.11,2.42465,8.75,3.61018,2.65064,10.2062
4206.11,2.42512,8.75,3.60918,2.65535,10.2232
4213.11,2.4256,8.75,3.60715,2.66007,10.2402
4220.11,2.42608,8.75,3.60673,2.66478,10.2572
4227.11,2.42655,8.75,3.6048,2.6695,10.2742
4234.11,2.42702,8.75,3.60557,2.67422,10.2913
4241.11,2.42749,8.75,3.60327,2.67894,10.3083
4248.11,2.42796,8.75,3.60359,2.68366,10.3253
4255.11,2.42843,8.75,3.60232,2.68838,10.3423
4262.11,2.4289,8.75,3.60301,2.69311,10.3593
4269.11,2.42937,8.75,3.6004,2.69783,10.3763
4276.11,2.42983,8.75,3.6012,2.70255,10.3933
4283.11,2.4303,8.75,3.60037,2.70728,10.4103
4290.11,2.43076,8.75,3.59915,2.712,10.4274
4297.11,2.43122,8.75,3.59758,2.71673,10.4444
4304.11,2.43168,8.75,3.59828,2.72146,10.4614
4311.11,2.43214,8.75,3.59871,2.72619,10.4784
4318.11,2.4326,8.75,3.59599,2.73092,10.4954
4325.11,2.43306,8.75,3.59635,2.73565,10.5124
4332.11,2.43352,8.75,3.5939,2.74038,10.5294
4339.11,2.43398,8.75,3.59526,2.74511,10.5465
4346.11,2.43443,8.75,3.59402,2.74985,10.5635
4353.11,2.43489,8.75,3.59374,2.75458,10.5805
4360.11,2.43534,8.75,3.59224,2.75931,10.5975
4367.11,2.43579,8.75,3.5923,2.76405,10.6145
4374.11,2.43625,8.75,3.59287,2.76879,10.6315
4381.11,2.4367,8.75,3.59243,2.77352,10.6485
4388.11,2.43715,8.75,3.59082,2.77826,10.6656
4395.11,2.4376,8.75,3.58936,2.783,10.6826
4402.11,2.43805,8.75,3.58959,2.78774,10.6996
4409.11,2.4385,8.75,3.58942,2.79248,10.7166
4416.11,2.43895,8.75,3.58867,2.79723,10.7336
4423.11,2.43939,8.75,3.58683,2.80197,10.7506
4430.11,2.43984,8.75,3.58756,2.80671,10.7676
4437.11,2.44029,8.75,3.58529,2.81146,10.7847
4444.11,2.44074,8.75,3.58538,2.8162,10.8017
4451.11,2.44118,8.75,3.58407,2.82095,10.8187
4458.11,2.44163,8.75,3.5837,2.8257,10.8357
4465.11,2.44207,8.75,3.58164,2.83044,10.8527
4472.11,2.44252,8.75,3.5839,2.83519,10.8697
4479.11,2.44296,8.75,3.58054,2.83994,10.8867
4486.11,2.44341,8.75,3.58023,2.84469,10.9038
4493.11,2.44385,8.75,3.58032,2.84945,10.9208
4500.11,2.4443,8.75,3.57978,2.8542,10.9378
4507.11,2.44474,8.75,3.5781,2.85895,10.9548
4514.11,2.44519,8.75,3.57815,2.86371,10.9718
4521.11,2.44563,8.75,3.57786,2.86846,10.9888
4528.11,2.44607,8.75,3.57763,2.87322,11.0058
4535.11,2.44652,8.75,3.57667,2.87797,11.0228
4542.11,2.44696,8.75,3.57543,2.88273,11.0399
4549.11,2.44741,8.75,3.57572,2.88749,11.0569
4556.11,2.44785,8.75,3.57584,2.89225,11.0739
4563.11,2.44829,8.75,3.57445,2.89701,11.0909
4570.11,2.44874,8.75,3.57302,2.90177,11.1079
4577.11,2.44918,8.75,3.57268,2.90653,11.1249
4584.11,2.44963,8.75,3.57268,2.91129,11.1419
4591.11,2.45007,8.75,3.56949,2.91606,11.159
4598.11,2.45051,8.75,3.57051,2.92082,11.176
4605.11,2.45096,8.75,3.56969,2.92559,11.193
4612.11,2.4514,8.75,3.57007,2.93035,11.21
4619.11,2.45185,8.75,3.56886,2.93512,11.227
4626.11,2.4523,8.75,3.56862,2.93989,11.244
4633.11,2.45274,8.75,3.56839,2.94466,11.261
4640.11,2.45319,8.75,3.56618,2.94943,11.2781
4647.11,2.45364,8.75,3.56656,2.9542,11.2951
4654.11,2.45408,8.75,3.56606,2.95897,11.3121
4661.11,2.45453,8.75,3.56615,2.96374,11.3291
4668.11,2.45498,8.75,3.56399,2.96852,11.3461
4675.11,2.45543,8.75,3.56456,2.97329,11.3631
4682.11,2.45588,8.75,3.56217,2.97806,11.3801
4689.11,2.45633,8.75,3.56355,2.98284,11.3972
4696.11,2.45678,8.75,3.56037,2.98762,11.4142
4703.11,2.45723,8.75,3.56329,2.99239,11.4312
4710.11,2.45768,8.75,3.56058,2.99717,11.4482
4717.11,2.45813,8.75,3.55881,3.00195,11.4652
4724.11,2.45859,8.75,3.55786,3.00673,11.4822
4731.11,2.45904,8.75,3.55821,3.01151,11.4992
4738.11,2.45949,8.75,3.55585,3.0163,11.5163
4745.11,2.45995,8.75,3.5569,3.02108,11.5333
4752.11,2.46041,8.75,3.55431,3.02586,11.5503
4759.11,2.46086,8.75,3.55507,3.03065,11.5673
4766.11,2.46132,8.75,3.55632,3.03543,11.5843
4773.11,2.46178,8.75,3.55438,3.04022,11.6013
4780.11,2.46224,8.75,3.5521,3.04501,11.6183
4787.11,2.4627,8.75,3.55241,3.04979,11.6353
4794.11,2.46316,8.75,3.55113,3.05458,11.6524
4801.11,2.46363,8.75,3.55112,3.05937,11.6694
4808.11,2.46409,8.75,3.55216,3.06416,11.6864
4815.11,2.46455,8.75,3.551,3.06896,11.7034
4822.11,2.46502,8.75,3.54675,3.07375,11.7204
4829.11,2.46549,8.75,3.5482,3.07854,11.7374
4836.11,2.46596,8.75,3.54858,3.08334,11.7544
4843.11,2.46642,8.75,3.54686,3.08813,11.7715
4850.11,2.46689,8.75,3.54651,3.09293,11.7885
4857.11,2.46737,8.75,3.54695,3.09773,11.8055
4864.11,2.46784,8.75,3.54623,3.10252,11.8225
4871.11,2.46831,8.75,3.54563,3.10732,11.8395
4878.11,2.46879,8.75,3.54338,3.11212,11.8565
4885.11,2.46927,8.75,3.54323,3.11692,11.8735
4892.11,2.46975,8.75,3.54445,3.12173,11.8906
4899.11,2.47023,8.75,3.542,3.12653,11.9076
4906.11,2.47071,8.75,3.54194,3.13133,11.9246
4913.11,2.47119,8.75,3.54237,3.13614,11.9416
4920.11,2.47167,8.75,3.54094,3.14094,11.9586
4927.11,2.47216,8.75,3.53971,3.14575,11.9756
4934.11,2.47265,8.75,3.53569,3.15056,11.9926
4941.11,2.47313,8.75,3.539,3.15537,12.0097
4948.11,2.47362,8.75,3.53775,3.16017,12.0267
4955.11,2.47412,8.75,3.53621,3.16499,12.0437
4962.11,2.47461,8.75,3.53455,3.1698,12.0607
4969.11,2.47511,8.75,3.53487,3.17461,12.0777
4976.11,2.4756,8.75,3.53357,3.17942,12.0947
4983.11,2.4761,8.75,3.53402,3.18424,12.1117
4990.11,2.4766,8.75,3.5338,3.18905,12.1288
4997.11,2.4771,8.75,3.53378,3.19387,12.1458
5004.11,2.47761,8.75,3.53202,3.19868,12.1628
5011.11,2.47812,8.75,3.5306,3.2035,12.1798
5018.11,2.47862,8.75,3.53054,3.20832,12.1968
5025.11,2.47913,8.75,3.52866,3.21314,12.2138
5032.11,2.47965,8.75,3.52954,3.21796,12.2308
5039.11,2.48016,8.75,3.52829,3.22279,12.2478
5046.11,2.48068,8.75,3.52671,3.22761,12.2649
5053.11,2.4812,8.75,3.52642,3.23243,12.2819
5060.11,2.48172,8.75,3.52728,3.23726,12.2989
5067.11,2.48224,8.75,3.5265,3.24208,12.3159
5074.11,2.48276,8.74999,3.52376,3.24691,12.3329
5081.11,2.48329,8.75,3.52163,3.25174,12.3499
5088.11,2.48382,8.75,3.52339,3.25657,12.3669
5095.11,2.48435,8.75,3.52381,3.2614,12.384
5102.11,2.48489,8.75,3.51964,3.26623,12.401
5109.11,2.48542,8.75,3.52017,3.27106,12.418
5116.11,2.48596,8.75,3.52087,3.2759,12.435
5123.11,2.48651,8.75,3.51607,3.28073,12.452
5130.11,2.48705,8.75,3.51943,3.28557,12.469
5137.11,2.4876,8.75,3.51762,3.2904,12.486
5144.11,2.48814,8.75,3.51613,3.29524,12.5031
5151.11,2.4887,8.75,3.51565,3.30008,12.5201
5158.11,2.48925,8.75,3.51471,3.30492,12.5371
5165.11,2.48981,8.75,3.51573,3.30976,12.5541
5172.11,2.49037,8.75,3.51368,3.3146,12.5711
5179.11,2.49093,8.75,3.51305,3.31944,12.5881
5186.11,2.4915,8.75,3.51037,3.32429,12.6051
5193.11,2.49207,8.75,3.51009,3.32913,12.6222
5200.11,2.49264,8.75,3.51143,3.33398,12.6392
5207.11,2.49322,8.75,3.50957,3.33883,12.6562
5214.11,2.49379,8.75,3.50891,3.34368,12.6732
5221.11,2.49437,8.75,3.51037,3.34853,12.6902
5228.11,2.49496,8.75,3.50869,3.35338,12.7072
5235.11,2.49555,8.75,3.50588,3.35823,12.7242
5242.11,2.49614,8.75,3.50607,3.36308,12.7413
5249.11,2.49673,8.75,3.50617,3.36794,12.7583
5256.11,2.49733,8.75,3.50141,3.37279,12.7753
5263.11,2.49793,8.75,3.50218,3.37765,12.7923
5270.11,2.49853,8.75,3.50196,3.38251,12.8093
5277.11,2.49914,8.75,3.50084,3.38736,12.8263
5284.11,2.49975,8.75,3.50058,3.39222,12.8433
5291.11,2.50036,8.75,3.49945,3.39709,12.8603
5298.11,2.50098,8.75,3.49884,3.40195,12.8774
5305.11,2.5016,8.75,3.49757,3.40681,12.8944
5312.11,2.50223,8.75,3.49669,3.41168,12.9114
5319.11,2.50286,8.75,3.49647,3.41654,12.9284
5326.11,2.50349,8.75,3.49401,3.42141,12.9454
5333.11,2.50412,8.75,3.49367,3.42628,12.9624
5340.11,2.50476,8.75,3.49303,3.43115,12.9794
5347.11,2.50541,8.75,3.49139,3.43602,12.9965
5354.11,2.50605,8.75001,3.49226,3.44089,13.0135
5361.11,2.5067,8.75,3.48967,3.44577,13.0305
5368.11,2.50736,8.75,3.48965,3.45064,13.0475
5375.11,2.50802,8.75,3.48779,3.45552,13.0645
5382.11,2.50868,8.75,3.48977,3.46039,13.0815
5389.11,2.50935,8.75,3.48557,3.46527,13.0985
5396.11,2.51002,8.75,3.48654,3.47015,13.1156
5403.11,2.51069,8.75,3.48425,3.47503,13.1326
5410.11,2.51137,8.75,3.48312,3.47992,13.1496
5417.11,2.51205,8.75,3.48107,3.4848,13.1666
5424.11,2.51273,8.75001,3.48177,3.48969,13.1836
5431.11,2.51342,8.75,3.48077,3.49457,13.2006
5438.11,2.51412,8.75,3.48165,3.49946,13.2176
5445.11,2.51481,8.75,3.47766,3.50435,13.2347
5452.11,2.51551,8.75,3.47988,3.50924,13.2517
5459.11,2.51622,8.75,3.47797,3.51413,13.2687
5466.11,2.51693,8.75,3.47629,3.51903,13.2857
5473.11,2.51764,8.75001,3.47531,3.52392,13.3027
5480.11,2.51835,8.75,3.47336,3.52882,13.3197
5487.11,2.51907,8.75,3.47337,3.53371,13.3367
5494.11,2.5198,8.75001,3.47224,3.53861,13.3538
5501.11,2.52052,8.75,3.47368,3.54351,13.3708
5508.11,2.52125,8.75,3.46991,3.54842,13.3878
5515.11,2.52199,8.75,3.46873,3.55332,13.4048
5522.11,2.52272,8.75,3.46767,3.55822,13.4218
5529.11,2.52346,8.75,3.46585,3.56313,13.4388
5536.11,2.52421,8.75,3.46672,3.56804,13.4558
5543.11,2.52495,8.75001,3.46736,3.57295,13.4728
5550.11,2.5257,8.75,3.46439,3.57786,13.4899
5557.11,2.52646,8.75,3.46512,3.58277,13.5069
5564.11,2.52721,8.75001,3.46298,3.58768,13.5239
5571.11,2.52797,8.75,3.46118,3.5926,13.5409
5578.11,2.52873,8.75,3.46051,3.59751,13.5579
5585.11,2.5295,8.75,3.46158,3.60243,13.5749
5592.11,2.53027,8.75,3.45964,3.60735,13.5919
5599.11,2.53104,8.75,3.45661,3.61227,13.609
5606.11,2.53181,8.75,3.45604,3.61719,13.626
5613.11,2.53258,8.75,3.4556,3.62212,13.643
5620.11,2.53336,8.75,3.45364,3.62704,13.66
5627.11,2.53414,8.75,3.45317,3.63197,13.677
5634.11,2.53492,8.75,3.45226,3.6369,13.694
5641.11,2.5357,8.75,3.44933,3.64183,13.711
5648.11,2.53648,8.75,3.45016,3.64676,13.7281
5655.11,2.53727,8.75,3.44789,3.65169,13.7451
5662.11,2.53805,8.75,3.44799,3.65663,13.7621
5669.11,2.53884,8.75,3.4471,3.66156,13.7791
5676.11,2.53963,8.75,3.44576,3.6665,13.7961
5683.11,2.54042,8.75,3.44278,3.67144,13.8131
5690.11,2.54121,8.75,3.44343,3.67638,13.8301
5697.11,2.542,8.75,3.44099,3.68132,13.8472
5704.11,2.5428,8.75,3.43981,3.68627,13.8642
5711.11,2.54359,8.75,3.43849,3.69121,13.8812
5718.11,2.54438,8.75,3.439,3.69616,13.8982
5725.11,2.54518,8.75,3.43777,3.70111,13.9152
5732.11,2.54597,8.75,3.43727,3.70606,13.9322
5739.11,2.54677,8.75,3.43572,3.71101,13.9492
5746.11,2.54756,8.75,3.43539,3.71596,13.9663
5753.11,2.54835,8.75,3.435,3.72091,13.9833
5760.11,2.54915,8.75,3.43164,3.72587,14.0003
5767.11,2.54994,8.75,3.43069,3.73083,14.0173
5774.11,2.55073,8.75,3.43056,3.73579,14.0343
5781.11,2.55152,8.75,3.42889,3.74075,14.0513
5788.11,2.55231,8.75,3.42837,3.74571,14.0683
5795.11,2.5531,8.75001,3.42757,3.75067,14.0853
5802.11,2.55389,8.75,3.4268,3.75564,14.1024
5809.11,2.55468,8.75,3.42637,3.76061,14.1194
5816.11,2.55547,8.75001,3.42521,3.76557,14.1364
5823.11,2.55625,8.75,3.42247,3.77054,14.1534
5830.11,2.55704,8.75,3.42116,3.77552,14.1704
5837.11,2.55782,8.75,3.42016,3.78049,14.1874
5844.11,2.5586,8.75,3.41914,3.78546,14.2044
5851.11,2.55938,8.75,3.42042,3.79044,14.2215
5858.11,2.56015,8.75,3.41653,3.79542,14.2385
5865.11,2.56093,8.75,3.41426,3.8004,14.2555
5872.11,2.5617,8.75,3.41518,3.80538,14.2725
5879.11,2.56247,8.75,3.41327,3.81036,14.2895
5886.11,2.56324,8.75,3.4158,3.81534,14.3065
5893.11,2.56401,8.75,3.41423,3.82033,14.3235
5900.11,2.56477,8.75001,3.41224,3.82531,14.3406
5907.11,2.56553,8.75,3.4115,3.8303,14.3576
5914.11,2.56629,8.75,3.40937,3.83529,14.3746
5921.11,2.56705,8.75,3.40794,3.84028,14.3916
5928.11,2.56781,8.75,3.40725,3.84527,14.4086
5935.11,2.56856,8.75,3.40674,3.85027,14.4256
5942.11,2.56931,8.75,3.40656,3.85526,14.4426
5949.11,2.57006,8.75,3.40534,3.86026,14.4597
5956.11,2.5708,8.74999,3.40385,3.86526,14.4767
5963.11,2.57155,8.75,3.40365,3.87026,14.4937
5970.11,2.57229,8.75,3.4023,3.87526,14.5107
5977.11,2.57303,8.75,3.40042,3.88026,14.5277
5984.11,2.57376,8.75001,3.40082,3.88526,14.5447
5991.11,2.5745,8.75,3.39852,3.89027,14.5617
5998.11,2.57523,8.74999,3.39741,3.89528,14.5788
6005.11,2.57596,8.75,3.39649,3.90028,14.5958
6012.11,2.57669,8.75,3.39516,3.90529,14.6128
6019.11,2.57741,8.74999,3.3951,3.9103,14.6298
6026.11,2.57813,8.75,3.39629,3.91532,14.6468
6033.11,2.57885,8.75,3.39452,3.92033,14.6638
6040.11,2.57957,8.75,3.39104,3.92535,14.6808
6047.11,2.58029,8.74999,3.39183,3.93036,14.6978
6054.11,2.581,8.75,3.39248,3.93538,14.7149
6061.11,2.58172,8.74999,3.39045,3.9404,14.7319
6068.11,2.58243,8.75,3.38813,3.94542,14.7489
6075.11,2.58314,8.75,3.38676,3.95044,14.7659
6082.11,2.58384,8.74999,3.3874,3.95547,14.7829
6089.11,2.58455,8.75,3.38515,3.96049,14.7999
6096.11,2.58525,8.75,3.38482,3.96552,14.8169
6103.11,2.58596,8.74999,3.38516,3.97055,14.834
6110.11,2.58666,8.75,3.38387,3.97557,14.851
6117.11,2.58736,8.74999,3.3817,3.98061,14.868
6124.11,2.58806,8.75,3.38085,3.98564,14.885
6131.11,2.58876,8.74999,3.38119,3.99067,14.902
6138.11,2.58946,8.75,3.37968,3.9957,14.919
6145.11,2.59016,8.75,3.3774,4.00074,14.936
6152.11,2.59086,8.75,3.37394,4.00578,14.9531
6159.11,2.59155,8.75,3.37632,4.01082,14.9701
6166.11,2.59225,8.74999,3.37423,4.01586,14.9871
6173.11,2.59295,8.75,3.37508,4.0209,15.0041
6180.11,2.59365,8.75,3.37338,4.02594,15.0211
6187.11,2.59434,8.75,3.37188,4.03098,15.0381
6194.11,2.59504,8.75001,3.3732,4.03603,15.0551
6201.11,2.59574,8.75,3.37152,4.04108,15.0722
6208.11,2.59644,8.75,3.37021,4.04612,15.0892
6215.11,2.59715,8.75,3.37082,4.05117,15.1062
6222.11,2.59785,8.74999,3.36748,4.05622,15.1232
6229.11,2.59856,8.75,3.36789,4.06128,15.1402
6236.11,2.59926,8.74999,3.36661,4.06633,15.1572
6243.11,2.59997,8.75,3.36377,4.07138,15.1742
6250.11,2.60069,8.74999,3.36344,4.07644,15.1913
6257.11,2.6014,8.75,3.36465,4.0815,15.2083
6264.11,2.60212,8.74999,3.36338,4.08656,15.2253
6271.11,2.60284,8.75,3.3606,4.09162,15.2423
6278.11,2.60356,8.75,3.36201,4.09668,15.2593
6285.11,2.60429,8.75,3.36051,4.10174,15.2763
6292.11,2.60502,8.75,3.35908,4.10681,15.2933
6299.11,2.60576,8.75,3.35809,4.11187,15.3103
6306.11,2.6065,8.75,3.35769,4.11694,15.3274
6313.11,2.60724,8.75,3.35727,4.12201,15.3444
6320.11,2.60799,8.74999,3.35421,4.12708,15.3614
6327.11,2.60875,8.75,3.35436,4.13215,15.3784
6334.11,2.60951,8.74999,3.35472,4.13723,15.3954
6341.11,2.61028,8.75,3.35267,4.1423,15.4124
6348.11,2.61105,8.75,3.35154,4.14738,15.4294
6355.11,2.61184,8.75001,3.35195,4.15246,15.4465
6362.11,2.61262,8.74999,3.34635,4.15754,15.4635
6369.11,2.61342,8.75,3.34862,4.16262,15.4805
6376.11,2.61422,8.75,3.3473,4.1677,15.4975
6383.11,2.61504,8.75001,3.34675,4.17278,15.5145
6390.11,2.61586,8.74999,3.34407,4.17787,15.5315
6397.11,2.61669,8.75,3.34387,4.18296,15.5485
6404.11,2.61753,8.74999,3.34267,4.18805,15.5656
6411.11,2.61838,8.75,3.34295,4.19314,15.5826
6418.11,2.61924,8.75,3.34034,4.19823,15.5996
6425.11,2.62011,8.75,3.33985,4.20332,15.6166
6432.11,2.62099,8.74999,3.33899,4.20842,15.6336
6439.11,2.62189,8.75,3.33828,4.21351,15.6506
6446.11,2.6228,8.75,3.33744,4.21861,15.6676
6453.11,2.62372,8.74999,3.33532,4.22371,15.6847
6460.11,2.62465,8.74999,3.33294,4.22882,15.7017
6467.11,2.6256,8.75,3.33202,4.23392,15.7187
6474.11,2.62657,8.75001,3.33134,4.23903,15.7357
6481.11,2.62755,8.75,3.33163,4.24414,15.7527
6488.11,2.62855,8.74999,3.3288,4.24925,15.7697
6495.11,2.62956,8.74999,3.32765,4.25436,15.7867
6502.11,2.63059,8.75,3.32528,4.25947,15.8038
6509.11,2.63164,8.75002,3.32494,4.26459,15.8208
6516.11,2.63271,8.75,3.32316,4.26971,15.8378
6523.11,2.6338,8.74999,3.32297,4.27483,15.8548
6530.11,2.63492,8.75001,3.32153,4.27995,15.8718
6537.11,2.63605,8.75,3.31839,4.28508,15.8888
6544.11,2.63721,8.75001,3.31874,4.2902,15.9058
6551.11,2.63839,8.74999,3.31811,4.29533,15.9228
6558.11,2.6396,8.75,3.31236,4.30046,15.9399
6565.11,2.64083,8.74998,3.31334,4.3056,15.9569
6572.11,2.64209,8.74999,3.31329,4.31073,15.9739
6579.11,2.64338,8.75,3.31036,4.31587,15.9909
6586.11,2.6447,8.74999,3.3068,4.32101,16.0079
6593.11,2.64605,8.75,3.30698,4.32616,16.0249
6600.11,2.64744,8.75,3.30532,4.3313,16.0419
6607.11,2.64886,8.75,3.30197,4.33645,16.059
6614.11,2.65031,8.74999,3.30188,4.34161,16.076
6621.11,2.6518,8.75002,3.30064,4.34676,16.093
6628.11,2.65333,8.75,3.29757,4.35192,16.11
6635.11,2.6549,8.74998,3.29524,4.35708,16.127
6642.11,2.6565,8.74999,3.29376,4.36224,16.144
6649.11,2.65816,8.75001,3.2925,4.36741,16.161
6656.11,2.65985,8.75002,3.29062,4.37258,16.1781
6663.11,2.66159,8.75,3.28992,4.37776,16.1951
6670.11,2.66338,8.75001,3.28476,4.38293,16.2121
6677.11,2.66522,8.75001,3.28314,4.38811,16.2291
6684.11,2.6671,8.75,3.281,4.3933,16.2461
6691.11,2.66904,8.74999,3.27872,4.39849,16.2631
6698.11,2.67103,8.75,3.27702,4.40368,16.2801
6705.11,2.67307,8.74999,3.2739,4.40887,16.2972
6712.11,2.67517,8.74999,3.27062,4.41407,16.3142
6719.11,2.67732,8.75,3.2694,4.41928,16.3312
6726.11,2.67952,8.75002,3.2642,4.42449,16.3482
6733.11,2.68179,8.75,3.26202,4.4297,16.3652
6740.11,2.68411,8.74999,3.25868,4.43492,16.3822
6747.11,2.68648,8.74998,3.25756,4.44014,16.3992
6754.11,2.68892,8.75,3.25586,4.44536,16.4163
6761.11,2.69141,8.75002,3.24993,4.4506,16.4333
6768.11,2.69396,8.74999,3.24644,4.45583,16.4503
6775.11,2.69657,8.75002,3.24494,4.46107,16.4673
6782.11,2.69923,8.75002,3.24102,4.46632,16.4843
6789.11,2.70195,8.75,3.23896,4.47157,16.5013
6796.11,2.70472,8.74998,3.23441,4.47683,16.5183
6803.11,2.70755,8.74999,3.2312,4.48209,16.5353
6810.11,2.71043,8.74999,3.22773,4.48736,16.5524
6817.11,2.71336,8.74998,3.22434,4.49263,16.5694
6824.11,2.71634,8.75,3.22279,4.49791,16.5864
6831.11,2.71937,8.75001,3.2171,4.5032,16.6034
6838.11,2.72245,8.74999,3.2145,4.50849,16.6204
6845.11,2.72557,8.75002,3.21005,4.51378,16.6374
6852.11,2.72873,8.75003,3.20738,4.51909,16.6544
6859.11,2.73193,8.74997,3.20279,4.5244,16.6715
6866.11,2.73517,8.75002,3.198,4.52971,16.6885
6873.11,2.73844,8.74999,3.19546,4.53503,16.7055
6880.11,2.74175,8.75001,3.19158,4.54036,16.7225
6887.11,2.74509,8.74997,3.1879,4.5457,16.7395
6894.11,2.74845,8.75002,3.18405,4.55104,16.7565
6901.11,2.75184,8.75003,3.18018,4.55639,16.7735
6908.11,2.75525,8.74997,3.17687,4.56174,16.7906
6915.11,2.75869,8.75001,3.17094,4.5671,16.8076
6922.11,2.76214,8.74999,3.16755,4.57247,16.8246
6929.11,2.76561,8.75002,3.16354,4.57785,16.8416
6936.11,2.76909,8.75004,3.15929,4.58323,16.8586
6943.11,2.77259,8.74997,3.15502,4.58862,16.8756
6950.11,2.77609,8.75002,3.15197,4.59401,16.8926
6957.11,2.77961,8.74999,3.14726,4.59941,16.9097
6964.11,2.78313,8.75003,3.14544,4.60482,16.9267
6971.11,2.78667,8.74998,3.14046,4.61024,16.9437
6978.11,2.79021,8.74997,3.13597,4.61566,16.9607
6985.11,2.79375,8.75003,3.13226,4.62109,16.9777
6992.11,2.7973,8.74999,3.12779,4.62652,16.9947
6999.11,2.80086,8.75001,3.12472,4.63197,17.0117
7006.11,2.80442,8.74998,3.12207,4.63742,17.0288
7013.11,2.80799,8.74997,3.11577,4.64287,17.0458
7020.11,2.81157,8.75003,3.11214,4.64834,17.0628
7027.11,2.81515,8.74999,3.10894,4.65381,17.0798
7034.11,2.81875,8.75001,3.10542,4.65929,17.0968
7041.11,2.82235,8.74997,3.10006,4.66477,17.1138
7048.11,2.82597,8.74996,3.09758,4.67026,17.1308
7055.11,2.82961,8.75003,3.09101,4.67576,17.1478
7062.11,2.83326,8.74998,3.08718,4.68127,17.1649
7069.11,2.83693,8.75004,3.08505,4.68678,17.1819
7076.11,2.84063,8.75005,3.07964,4.6923,17.1989
7083.11,2.84435,8.74997,3.07711,4.69783,17.2159
7090.11,2.8481,8.75002,3.07179,4.70337,17.2329
7097.11,2.85189,8.74999,3.0668,4.70891,17.2499
7104.11,2.85572,8.75003,3.06382,4.71446,17.2669
7111.11,2.85959,8.74998,3.05856,4.72001,17.284
7118.11,2.86351,8.75001,3.05564,4.72558,17.301
7125.11,2.86747,8.75,3.05149,4.73115,17.318
7132.11,2.8715,8.75002,3.04714,4.73673,17.335
7139.11,2.87559,8.74999,3.0418,4.74232,17.352
7146.11,2.87975,8.75,3.03892,4.74792,17.369
7153.11,2.88398,8.74996,3.03402,4.75352,17.386
7160.11,2.88829,8.74999,3.02852,4.75913,17.4031
7167.11,2.89269,8.74999,3.02695,4.76475,17.4201
7174.11,2.89718,8.74998,3.02023,4.77038,17.4371
7181.11,2.90178,8.75004,3.01319,4.77602,17.4541
7188.11,2.90649,8.74999,3.00974,4.78167,17.4711
7195.11,2.91131,8.74997,3.00579,4.78733,17.4881
7202.11,2.91626,8.75,3,4.79299,17.5051
7209.11,2.92134,8.75004,2.99438,4.79867,17.5222
7216.11,2.92657,8.74996,2.98835,4.80435,17.5392
7223.11,2.93195,8.75,2.9848,4.81005,17.5562
7230.11,2.9375,8.75005,2.97932,4.81576,17.5732
7237.11,2.94322,8.74998,2.97486,4.82148,17.5902
7244.11,2.94914,8.75004,2.96754,4.82721,17.6072
7251.11,2.95525,8.75003,2.95932,4.83295,17.6242
7258.11,2.96157,8.74996,2.95421,4.8387,17.6413
7265.11,2.96812,8.74996,2.94762,4.84447,17.6583
7272.11,2.97492,8.75001,2.94045,4.85024,17.6753
7279.11,2.98197,8.75002,2.93481,4.85604,17.6923
7286.11,2.9893,8.74996,2.92683,4.86184,17.7093
7293.11,2.99692,8.75004,2.91994,4.86766,17.7263
7300.11,3.00485,8.75005,2.91477,4.8735,17.7433
7307.11,3.01312,8.74997,2.90217,4.87935,17.7603
7314.11,3.02174,8.75006,2.89451,4.88522,17.7774
7321.11,3.03074,8.74994,2.88647,4.89111,17.7944
7328.11,3.04015,8.75001,2.87811,4.89701,17.8114
7335.11,3.04999,8.74997,2.86949,4.90293,17.8284
7342.11,3.0603,8.75007,2.85886,4.90887,17.8454
7349.11,3.0711,8.74993,2.85054,4.91484,17.8624
7356.11,3.08244,8.74992,2.8397,4.92082,17.8794
7363.11,3.09435,8.74997,2.82689,4.92683,17.8965
7370.11,3.10688,8.74995,2.81633,4.93286,17.9135
7377.11,3.12006,8.74995,2.80495,4.93891,17.9305
7384.11,3.13396,8.74992,2.79133,4.945,17.9475
7391.11,3.14863,8.74976,2.77837,4.95111,17.9645
7398.11,3.16416,8.75,2.76421,4.95725,17.9815
7405.11,3.18057,8.75,2.75094,4.96342,17.9985
7412.11,3.19797,8.74993,2.73768,4.96962,18.0156
7418.82,3.21567,8.75006,2.72105,4.9756,18.0319
7425.06,3.23307,8.7499,2.7069,4.98119,18.047
7432.06,3.25378,8.74962,2.68925,4.9875,18.064
7439.06,3.27593,8.75004,2.67033,4.99385,18.0811
7446.06,3.29958,8.75007,2.65136,5.00025,18.0981
7453.06,3.3249,8.74985,2.6302,5.00669,18.1151
7459.28,3.34898,8.74984,2.61111,5.01245,18.1302
7465.41,3.37435,8.75001,2.59266,5.01818,18.1451
7472.41,3.40542,8.74994,2.56947,5.02478,18.1621
7479.41,3.43909,8.75009,2.54317,5.03144,18.1791
7486.41,3.47565,8.74994,2.51625,5.03817,18.1961
7490.77,3.50002,8.75005,2.49999,5.04239,18.2067